t,ax,ay,az,gx,gy,gz
0.0,-0.2567783334861841,0.26509151045956975,9.826203314983376,0.1436618067612578,0.7634383949672829,-0.32510117331851074
0.005,0.1513412660274767,0.07766225981129386,9.78765896222934,-0.2286575824312012,-0.6875428308148257,-0.3645135382144678
0.01,0.0006600347025792945,-0.16557200470791034,9.683333926595658,-0.12861832117427224,1.2372455467944852,-1.0796559440780606
0.015,0.10444820533846731,0.26671129105617747,9.709296360946865,-0.5586506205197401,-0.65582073839122,-0.053148466483719826
0.02,0.3828073525629555,0.2538533850128644,9.74987081650049,-0.11643857951522588,-1.2631988022461054,-0.3708053219484532
0.025,0.2204959516157036,-0.240654042686371,9.781914524184536,-0.054110393529032866,0.07433828360642249,-0.018701382758628614
0.03,-0.09091953796079028,0.0648710791608148,9.81567101447084,0.13169567634432466,0.029044300503178504,0.4674735349381818
0.035,0.04015144996872747,0.0078004627850648215,9.90775397121711,0.09975293594408206,-0.961895459542379,0.44104277029561234
0.04,-0.057399016439507955,-0.05106039672626431,9.916376309809467,-0.5945207848642726,-0.05983636655303914,-0.2917265067214933
0.045,-0.026233813503826888,0.30580953547948714,9.95374309365919,-1.1734361034489977,0.708144610334841,-0.541327892151953
0.05,-0.06111480653328203,-0.15816295990515314,9.992809449484048,-0.5874181047722459,-0.1925840033814932,-0.03892477576876704
0.055,-0.056395415074497315,-0.2942398587447344,9.986648370285428,0.10656099559954352,-1.2406902450814754,-0.5215626914333109
0.06,-0.17342435584464735,0.04356573265308145,9.935970069974696,0.11508926006941575,0.47655131893039937,0.09361360432329002
0.065,0.06791040536578109,-0.08796355743250603,9.651250189792648,0.33925534947764246,-0.21541088046478263,-0.28776299437038455
0.07,-0.01798512680731413,0.048339409536802616,9.622646801909275,0.4656890821088307,0.11605345995334532,-0.8417411069899815
0.075,0.2686354888728695,0.19934223718388402,9.85072201995205,-0.7895198020171373,0.7479536729170903,-0.5989032147469909
0.08,-0.2872426520443261,0.08472657584319271,9.70507181096737,0.8923738840195453,-0.36099539194916924,-0.34829774976636163
0.085,0.03706454552571461,-0.08837548488399778,9.683582604227835,0.09843380348819446,0.014547623963438996,0.21631949731229916
0.09,-0.1084284145159993,0.1936802259428066,9.986309222332416,-0.08825601718215247,-0.31074785334379074,0.16029515278645645
0.095,-0.230176967623284,0.06857109639946991,9.781764141398527,-0.2528309299024471,-0.38694071154391635,0.32121502767534316
0.1,0.1054526611810589,0.18469007145879798,9.739207325491893,0.6835027909394029,-0.15061389377473733,-0.7429790484902005
0.105,0.3422933519592117,-0.29505586011778434,10.215495147080185,-0.1902608762858544,0.9300915658830234,-0.14567572926001737
0.11,-0.09729043436776855,-0.10527571750225445,9.9770416771098,0.34758657257639886,0.7781358412593549,-0.3189336810850797
0.115,0.45143784719715657,-0.2251851445821226,9.693989132367529,-1.7190549659505503,0.4547855613125166,-0.48781915037982765
0.12,0.05309154436813399,-0.023444938590355232,9.606020959701489,0.41742842087984205,-0.8703111342954524,0.10738940225763419
0.125,-0.0034487629529075647,-0.10678712884820354,9.91020051626048,-0.5136946843064076,-0.2540375140602765,-0.4195399685639083
0.13,0.13341097299767019,-0.16131259754564342,10.014138057949287,-0.9593117239332345,-0.032529933930914745,-0.21819119450064953
0.135,-0.06498391718354268,0.2613321934522972,9.339289072284506,0.4134375142059467,-0.2453602763091844,0.7620868035478039
0.14,-0.10930871862307312,0.2111986889000176,9.374729868380083,-0.5067838569179542,0.25546404836803216,-0.7536421186190873
0.145,0.2723078314050466,-0.4170409410015598,9.68872174660594,-1.1274902834399936,0.1671675646065824,-0.661014923891552
0.15,-0.09994547914685939,-0.1505034723057579,9.386354237919845,0.2169540114821472,-0.3717558700918929,-0.06516088332104716
0.155,-0.27745638533562106,-0.07172796972972455,9.768995420683147,-0.418159014329039,0.30977123864218936,0.5160826941756881
0.16,0.1200574413826308,0.1760052554844123,9.236763082353194,-0.0891821703697847,-0.03109822852886926,-0.6003368566765147
0.165,0.01987431563635297,0.04198666693360477,10.183291013842299,-0.674680785695079,-0.3668134914047046,1.031164553899494
0.17,-0.017657036377504813,-0.006046784057333636,9.73396660017565,0.11363945790711813,-0.5687928846416067,0.6187369813640171
0.17500000000000002,-0.10717923953037145,-0.29455961281742876,9.88717248205769,-0.5853307322640674,0.27412671514332726,0.9966244600868677
0.18,-0.05490951930718812,0.12941346403232928,9.582842216728361,-0.3238485945398326,-0.9441498684702891,0.021899266124542814
0.185,-0.04558842541808634,-0.22807027935254975,9.770813962852216,-0.5479156456951532,0.5145219566325949,-0.10199834623867754
0.19,0.11546515063073695,-0.15879585382510275,10.170769659107451,0.08701407828578885,-1.0117824205563866,0.07538816315619372
0.195,-0.05523324597778911,0.0021970961711797765,9.890922121436349,0.23873098292696018,-0.3268588813858763,0.6975985946348793
0.2,0.12199115347641894,0.10908874027174234,9.837960844134265,0.00013688719060616072,-0.6116942786075713,-0.03344523953279002
0.20500000000000002,0.4741886308376555,-0.14092510555960275,9.54735049666626,0.19014571279224846,0.2643817692661639,1.2729532385397313
0.21,0.25584712478278065,0.044530493954165945,9.512287061956052,-0.3051121685482876,0.32597100090164405,-0.9495827864120652
0.215,-0.05295967983437947,-0.07311107000012902,9.790101623320117,-0.5159169794023725,-0.1385596630663011,0.1871147744193392
0.22,-0.2825444117521001,-0.16687638071849847,10.115718234794878,-0.5290367310481155,-0.6012209472290743,-0.16849231446562182
0.225,-0.023547785238933486,-0.09946536500138152,9.669445653902049,-0.08863635805574185,-0.532696052184415,-0.9790542036206848
0.23,0.15601870550123376,0.08754685787821803,9.767912564757177,0.455632986915647,0.44837557943402523,0.19334394706543753
0.23500000000000001,-0.12242604187834345,-0.3254363417085132,9.72445659026294,0.130608795904371,-0.3387075370613844,-0.07544644276830395
0.24,-0.06388473334216312,-0.020595141445288026,9.666854391055569,0.27332441412414665,-0.4236705959704011,0.8163568280438643
0.245,-0.34396298855266055,0.02400070771672697,9.912006365296158,0.023726501537244912,-0.13633633913062315,0.051577060747169355
0.25,-0.011696699810879146,-0.13986637795542797,9.685530938655674,-1.0784695501170687,0.38992142903073257,0.9940211422824898
0.255,-0.2012506134751324,-0.361821492154011,10.079127873633503,0.1798182665618985,0.550854382522915,-0.3308197271350044
0.26,0.21706558177474478,0.23182415553153538,9.72691096725564,0.21313559157159945,-0.22462670843719854,-0.20991491818318725
0.265,-0.2094162565114539,0.14461695037833489,9.683675425779375,0.20113865151129184,-0.16356056359380666,0.46858082629511877
0.27,-0.13853738588259443,0.1579162790228301,9.85860243161262,-0.5300290755246683,-0.6854277831952353,-0.9398857733575188
0.275,0.10365780383479278,0.34107580309351715,9.625593047203514,0.011563862167070622,-0.5658102324342025,-1.0120272238656118
0.28,-0.014765979107368347,-0.025839035347325724,9.712142982233024,-0.49806247736057785,-0.06106704132100958,0.35025732041657576
0.28500000000000003,0.12054773678985489,0.21994613029401133,9.819568928243864,0.6991819126171328,0.026733039280294114,0.5723588683545362
0.29,0.11561661544012942,-0.05411400261402776,9.640055184513047,0.0674102733630593,-0.08295357300819826,0.061419839285457974
0.295,-0.03456593847202973,0.0378490224837321,9.939851781074639,-0.20928724292516868,-0.05345994359403204,0.027208296489123415
0.3,-0.08871754526136176,-0.26389150384057686,9.92787250491035,0.40931408726504753,-1.010708759652917,-0.04207310552617473
0.305,0.04615475091746045,0.07813832271872927,10.076538843436559,-0.09939163225907915,-0.18096287633095054,-0.09626165544959585
0.31,0.25959578421550983,-0.23679450077674535,9.660490809896473,0.24464392159338716,0.5569316935028024,-0.7257618481788393
0.315,0.006155604490232365,0.2792373350794856,9.799990363165302,-0.8419942196314241,-0.9011517823247924,-0.125193975405375
0.32,-0.051465785944152465,-0.038955292465748664,9.673648491348022,0.08955859480005916,-0.48406903408522517,0.6116505726326785
0.325,0.004545317279093253,-0.03356363377595339,9.58966474226035,-0.07195865100203362,-0.43726587133890554,0.07500210675789383
0.33,0.11084385015740805,0.2877940669655816,9.856256107736959,-0.31024913413890837,-0.20250016319829073,0.15105659348528042
0.335,-0.030514942058248465,-0.20986686545619793,9.700718777373798,-0.24114795411002385,-0.17331655280026914,0.8887811220205627
0.34,0.5375205420899535,-0.05934223106334396,10.190535226648166,-0.6870322675726891,0.49166220475653644,-0.24559241283627914
0.34500000000000003,0.8854717340133123,0.10578366875419479,9.952438953247738,0.5833569103717589,0.14800386131542034,-0.47958114020495984
0.35000000000000003,-0.35105735507542457,0.11840287022649731,10.31766625712025,0.12437394311805204,0.19018534307179458,0.09234258730110036
0.355,0.07810706894132007,-0.3829483897275291,9.73077262055167,-0.3986763087940831,0.25111584155007977,0.21027703683875426
0.36,0.18697872009188357,0.028667558809514777,10.052107722461855,0.3577746504540639,-0.2898827881169987,-0.5884255472800887
0.365,0.320227955146821,-0.49768857094037894,9.844662872658143,0.2601040708036637,0.45764837779387285,-0.23896086071828143
0.37,-0.02861419983050936,-0.34628750638224726,10.44908578837248,0.26988183846245184,-0.494052856330417,0.1550973214937498
0.375,-0.1674625313148531,0.035838389681517584,9.872480395567914,0.06751985228506481,0.21896139984638674,-0.04546667002065037
0.38,-0.06558525454460896,-0.26200147125804923,9.989377962946678,0.19676906971162766,0.5356984443832836,-0.6878100082062715
0.385,-0.09123035698137073,0.1419379230173959,10.066889411113307,-0.603916514462587,-0.3117237677653137,-0.6219928577399254
0.39,0.043964321099475824,-0.04961450286488567,9.779574674842864,-0.5664144280307284,1.1259529947399172,-0.16552767587922332
0.395,0.34492602576248066,-0.26876675407375045,9.63469229785617,0.5334360527779045,0.15203934233461744,-0.2721293788783487
0.4,-0.04413530782122727,0.3221695928241197,9.804156304490533,0.8807341394549066,-0.8568302514876049,-0.4467444020158738
0.405,0.35981166688185395,-0.24081886843659578,9.725534689187281,0.42305801671115284,0.08875501240367117,0.45159377496988273
0.41000000000000003,0.41031177176684147,-0.13792330492945773,9.967478392194204,0.02841097508021928,-0.028677882536305453,0.36069101236608
0.41500000000000004,0.1791664962823698,0.05073153107997089,9.752226667507603,-0.22752046687484526,-0.017934673274502468,-0.3216036895958544
0.42,-0.31678202506861874,0.06354788809968821,9.754484428543266,-0.41190219867162076,-0.5940821592364804,0.3949713801665681
0.425,-0.11492851053298823,-0.17292265887790392,9.951829645374128,0.37423372290262347,0.7603112586438443,0.20590902463631194
0.43,-0.23729229036103228,0.21571012906033277,9.905135769139433,-0.17640581462910715,-0.6666916643346562,0.7043330819535653
0.435,0.25056690572580426,-0.14173206257423152,9.776028266508925,0.4143452530740744,-0.7611687874669026,0.001999930769298238
0.44,0.07682550073243004,0.5457392707698788,9.800787397376112,0.4825120141862047,0.32457512035764124,-0.015363056647632123
0.445,0.092560156539732,0.03228814460773174,9.939549370210798,0.17486378626279503,0.46443426062001997,-0.9158692791321733
0.45,0.15563159158566647,0.06004275732639889,9.568595648347834,0.03943129183723978,-0.38759263809053457,-0.738214411590536
0.455,-0.012000247737165154,0.2640906876433776,9.73395105475448,-0.17995005548824775,-0.9505686334683302,-0.03540801012755799
0.46,0.26782084652556803,-0.07131621084374186,9.86220483500225,-0.12457738417809802,-0.12614565791940058,-0.31476832683559336
0.465,0.14157786882879111,-0.09711586027364831,9.868342743816795,-0.3728211185233273,0.6757712538393835,-0.19803902536848306
0.47000000000000003,0.12228499992341663,-0.10378597566859937,9.858941481820278,0.27942833623694663,-0.1422044407005374,0.4339005393031555
0.47500000000000003,-0.06345159797851073,0.31593837077093645,9.692838475313463,0.08168452693211717,-0.07034544703070399,0.9517797374204242
0.48,0.3971807153524226,-0.2131755066791474,10.08495050418298,-0.45291882985005677,-0.6015180545368252,-0.32915273769735
0.485,-0.354456217632623,0.24022024310831835,9.62964055509604,0.36226550950079867,0.0463535111193977,0.23435215379857682
0.49,0.17121936289349285,-0.0320158123837681,9.729606742076559,-1.2115979536659094,-0.003554100712580391,-0.4203389882676784
0.495,0.15497714476516433,0.3507326102647849,10.033329943173543,-0.01886155607940177,-0.25345206781473273,-0.05279627759744827
0.5,-0.14843325718514175,0.11215154922364766,9.814546652643573,0.2830201768447593,0.7547762372152312,0.9150126994112073
0.505,-0.23856388760554245,-0.235056440623294,9.529224821757577,-1.2925999520020348,0.8060267934745681,0.2544569281974669
0.51,-0.05690813224547701,0.4804503634531397,9.756808209648886,-0.662704795517358,0.2007869462078186,0.07571678816440769
0.515,0.1588229956667245,0.1657348389512584,9.536011455420361,-0.19841945652964313,-0.22847192170394137,-0.44745613692716174
0.52,0.008169103804791277,0.09632337073023059,9.262746304773488,-0.8496855296999755,-0.12351130837352724,0.19892295275286312
0.525,0.059244094645962565,-0.03113685340138518,9.842603734823394,0.18389907031456637,-0.9142199733027377,0.92523176727685
0.53,-0.0031098066381696184,-0.10670449449376579,9.602887651685917,0.08331263277199819,-0.4531041892079223,-0.0848686634972995
0.535,-0.15640908030852996,0.2974983062513709,9.890454569888307,0.4152162222998995,0.3352860151077511,0.25896770215489484
0.54,0.06730275662338486,-0.18676418359600133,9.69455106422769,-0.2116453577333335,-0.6740652934129944,-0.7164606742586295
0.545,-0.06602229015771825,-0.013983270595413884,9.908372036696036,0.4419709961189511,-0.9013073406544566,-0.24050711669929944
0.55,-0.18541705190667587,0.05819076864948428,9.752043373987908,0.10804115804128647,-0.3532669367752201,-0.9584295190707243
0.555,-0.015543898952827727,-0.1649552305284536,9.568841442326654,-0.9558985078332582,0.29458024547351247,-0.5498280529233467
0.56,-0.0063644085463993,-0.23665348962803812,10.038682308353529,-0.6643945153315414,-0.6018076959619756,-0.08727021494831837
0.5650000000000001,0.03831706107534987,-0.03635558047167956,9.913587914117013,0.4442144544747693,0.16997121964664735,0.24461260766999823
0.5700000000000001,-0.08424899487950131,-0.06889509810868225,9.915240297324424,0.29092523720019486,0.06233112080690062,-0.0728634678273804
0.5750000000000001,-0.11257153591293996,0.3720119903945252,9.787444092639875,0.698157200923252,-1.0242848894771335,0.1112203166523922
0.58,0.2099868346322681,0.18946506240230615,10.027417792600861,-0.4853187469188449,0.11792686888222761,0.11498847711866617
0.585,0.16738155998364138,0.25807724101801666,9.61259085622572,0.08209988137657385,0.769083393676046,0.7530024013184949
0.59,0.11510172454414398,0.22380212643371175,9.887779388286015,0.4709379595277356,-0.5830714699758198,-0.023366867203189985
0.595,0.07516820703502419,0.009758817222531864,9.688845362357304,-0.30159083061443953,-0.2972487159687569,0.1453450613711119
0.6,-0.23010223797414478,0.14899547553955703,9.709963865952476,-0.0872274065226995,-1.703528510888264e-05,0.7309850729367625
0.605,0.1919681032937257,0.15558347322188654,9.714190717861424,0.1525032864215297,0.23743632022604258,0.07596606353858919
0.61,0.3422261826608541,-0.04858279482312788,9.906174454507184,0.3945316278835864,-0.7296920494604563,0.010335979292093527
0.615,-0.10502241520590071,-0.07732368412794188,9.7155715064925,-0.4591786429747205,-0.3312093443451916,-0.4760156051066595
0.62,-0.03080713222435179,-0.3038694790041256,9.629759538035941,0.3663130812721995,-0.7380957045902171,-0.19612583148827117
0.625,0.08679128824198212,0.11939198801579852,9.76435734906615,0.35263564269071124,0.2661667676961949,-0.1960280043356277
0.63,-0.058215575427203584,-0.11719216672559206,10.089582338359174,0.3974457403091504,-0.06703927266102434,-0.2922378216103725
0.635,0.14174505002019513,0.028945268948346033,9.750592137329345,0.4638087116785929,-0.5358969979610892,-0.032838938756892394
0.64,0.09735211469757464,-0.23058666482263043,9.764860736663811,-0.4374070365250755,0.3114289175411078,-0.3026623818183523
0.645,-0.12383058483375298,0.32538501234314166,9.722083561423705,-0.03987026778663628,0.1612367313467055,-0.4673864092049404
0.65,0.03269669778416149,0.07661046758331021,9.68687326355306,0.5284320047190839,0.0887180418393684,0.08383632931316123
0.655,-0.16032164125916235,0.001422516961487228,10.171290487569044,0.00839288800838044,0.14713544208603413,-0.31611399931698436
0.66,-0.22314197157041354,0.0023531464349792427,9.903416679756564,-0.026188166609927465,-0.3732474249700551,0.41150566888012335
0.665,0.1554985989640687,0.03954633258722354,9.426595713173045,0.31624062284539867,0.8178572609268361,-0.19145174092054837
0.67,0.2232625260124178,0.042367680373366974,9.71635988956536,0.3775608424095194,0.1410057150846507,-0.0872025948855747
0.675,-0.1532921429059849,0.011728835767183966,10.159277638636896,-0.03244500059330931,-0.8377524378409408,-0.30367096108942476
0.68,-0.09564502380813354,0.17849061695009094,9.758799149593603,0.16527925175923797,-0.055789455347230336,-0.3505834845736514
0.685,0.22392990414529124,0.03661968367145401,9.81487301761361,-0.3257124561806515,0.13823082679965806,-0.1981028109556137
0.6900000000000001,-0.36541315498896,0.23928116319947088,9.624562625188892,0.016778365790525607,0.07081886261636873,-0.3464847140762939
0.6950000000000001,0.01735431588315559,0.19305319136296495,10.096321896129155,0.15331053089401742,1.1566223612508268,0.589530391478527
0.7000000000000001,0.1247058840678599,0.1252254249621723,9.863671831379014,-0.35624578076050456,0.20616936814642872,-0.37643641679439804
0.705,-0.051534777762719544,-0.13775309021632223,9.818612074274627,-0.5076010853428317,0.3114122923624208,0.6220527555939889
0.71,0.12485013663749898,-0.072121981277953,9.749765882625583,0.22692653130203355,0.4335699907926807,0.609229055649342
0.715,-0.1092194513679624,0.6104410523809403,9.936099110251206,0.28917057089289167,-0.18208827202722103,-1.0610333782259913
0.72,0.15388047855434037,-0.11270424317062717,9.781392641172722,-0.001984690789799038,-1.1009230409245505,-0.07482749107557869
0.725,-0.04145691527792932,0.038391197951066464,9.73825083322177,-0.49292067537074236,-0.3476608298661929,0.42600681067892576
0.73,0.12074930254302184,-0.030583673820975255,9.747875715148359,0.17319136251573178,0.19613339844719874,0.137126798194126
0.735,-0.212336669714153,-0.038475006242322786,9.83444134991757,0.008386797638314987,-0.11912105274784378,0.754872576494479
0.74,-0.05974250392295915,0.06506455037285623,9.708582238860036,0.4977504472830151,-0.43176174752907015,0.40681935072691816
0.745,0.1459273457433858,0.36607568693864573,9.669295821283749,0.3805466158266588,-0.16009801654968867,-0.3971623810138635
0.75,0.09907229425040548,0.3125495295293096,10.049745084370263,-0.8435006852795167,-0.018713226669256594,0.2172759638814675
0.755,0.20460797314226303,0.08840283723066446,9.429374936959402,-0.2863124067204783,-0.5530646912349403,-0.40675842064600193
0.76,-0.16767726340857958,-0.12195407964113508,9.85821835463753,-0.14308083998217325,-0.48071801145280246,-0.3809878852501099
0.765,-0.24477940271256085,0.17269080022784705,10.111264421190228,0.3157650159767564,-0.3413532030202903,-0.3631542581527731
0.77,-0.19947529262058827,0.07733334673285586,9.870185113019728,0.7421228335789324,0.20481869045795106,-0.17774806584366776
0.775,0.040365829537339006,-0.13960662326051207,9.5850680678327,0.43832381632026485,0.9080903324056946,0.04632287431294222
0.78,-0.10122260275606992,0.1308085526307025,9.526236341295142,-0.1400455383114912,0.7634967162927611,0.16421201208383193
0.785,-0.2370293978628932,-0.05370853064031722,9.533038616198526,-0.28282412663894324,-0.4327389460561944,0.7636454108023263
0.79,0.013390482024328843,0.06690912246768134,10.4289771128623,-0.24110743084460892,0.8025009405015097,0.7364865897199674
0.795,-0.025044820477496933,0.12945677150828963,10.255997449380446,-0.36400301995455175,0.7748071514969428,0.4457356731622079
0.8,-0.06505431245104122,-0.11164050531501475,9.78149746613787,0.3509567118291417,-0.00020401729678170196,-1.112482755562459
0.805,0.2498239781013512,-0.19767804463934824,9.581070412447133,0.7991099223632246,0.06771281364836043,-0.0692572470783095
0.81,-0.18086015289528007,0.3751971497430615,9.906341667714043,-0.25454545901864706,0.7291197398756467,-0.46755806019539886
0.8150000000000001,-0.07426390770954454,0.07487987606658042,9.575570825404496,0.36031509562337943,-0.19766165978059239,0.5112523386004522
0.8200000000000001,0.098024836847953,-0.3897147984622063,9.798358647507511,0.03364589489588007,0.9105914022823138,0.30371579667183424
0.8250000000000001,-0.2909850593702093,-0.16796941891928507,9.795789237844753,-0.5685710266515216,0.2720267217335095,0.549553196517891
0.8300000000000001,-0.2815233205297807,-0.10588137870969416,9.80133360253108,-0.043122177933032205,-0.3722056872669896,-0.42691212066638007
0.835,0.24132646167783958,0.11073349915902769,9.515465101204517,0.27622047729634636,-0.06883680065830003,-0.09115716975818308
0.84,0.31053571384389284,-0.24940270818741622,10.08184856016023,-0.394703770779873,0.1533820039302481,-0.4443787861232455
0.845,0.38214415390271617,-0.008429936358450529,9.758216142403326,0.6207794225344996,-0.4302919348252874,-0.07877734253063358
0.85,-0.16947626956613168,0.09670220146554773,9.957560853337524,0.0766653610784973,-0.20622088005495173,0.05998611787189365
0.855,-0.19859176257740488,0.04315319688263063,9.788320935133559,0.5001015994748002,0.4698248806382168,0.5174275448854763
0.86,0.14230327901360373,0.16109460368982167,9.808397871241064,0.4327155319785846,1.1035632646206965,-0.7149915905224428
0.865,0.050403517837419344,-0.03634573495633422,9.617434869048232,0.7296439449859393,0.3434182441103999,-0.14486005994211715
0.87,-0.08333382792765447,-0.031359340484612065,9.85704014060164,-0.14204884788890015,-0.4815075521578946,-0.5516169002349858
0.875,0.002329509251736294,0.11912480409182054,9.726250685629648,0.42876099034210674,-0.2406852476085247,0.060968837268499464
0.88,0.0028429776322346,-0.008493493987748678,9.85468889688705,0.3739299870457566,0.2064428347823485,0.8702825445229225
0.885,-0.021436569868258492,0.01364760952942388,9.460610171208934,0.10566882796452187,-0.33088910463092,-0.656534145980873
0.89,-0.028321120831244717,0.12471995254386228,10.087701671118069,0.3527149709011543,0.15652078383818435,0.014107280141358971
0.895,-0.08680736253854174,-0.17555452300217333,9.688713304076368,0.32032139009271726,-1.0983115591108905,-0.11129366327108005
0.9,-0.3749271284123702,-0.1967157751626035,10.026006333958279,0.24818109763708782,0.4513570837810081,0.7000666475071149
0.905,0.19104221636020458,-0.27691250553162083,9.591581813290134,0.2198647861319232,0.4109326654014427,0.17444724924703287
0.91,-0.01713539721989469,0.07215977384948673,9.87138693015454,7.064158501041891e-05,0.37242804194808754,0.157898197457018
0.915,0.21429046106826588,0.08910811864130236,10.007679193882138,-0.3799050179440633,-0.13412262580904527,0.6372964820470577
0.92,-0.10134502322885108,-0.20247439780246168,9.818033415763022,0.3335692439040398,-0.18317213036904326,0.3937964025728025
0.925,-0.5595067694615573,0.1445485344250695,9.754423355613836,0.24178857589763428,0.4120028548872905,0.25449710861032815
0.93,-0.00868354027087246,-0.1446281220912016,10.020406496830665,0.7200462099522005,-0.9202705978923115,0.25754155029107806
0.935,-0.08052033002262834,0.08278867576383336,9.532532495424228,-0.4680951462951345,1.2359529231086388,-0.4638916962495748
0.9400000000000001,0.033061426573669894,-0.05155419532260515,9.849680873091454,-0.08325305224603718,-0.6332581274986405,0.5058235858720549
0.9450000000000001,-0.007586091057725596,0.3492173672712283,9.54639460760223,-0.7510018229690983,-0.016760964867782654,-0.8735543817297612
0.9500000000000001,-0.36481246405182954,0.10565986331497688,9.707246340788307,0.8342842757360017,0.06751442131407455,-0.15893471732471073
0.9550000000000001,0.11283612922937561,0.04049341168123469,9.702538787627955,-0.7054917969343034,-0.5515924136087283,-0.2832014509172464
0.96,0.1258221160554356,0.3333036272977099,10.181647661523135,0.7122562636968729,-0.27390214231187776,0.19453772844071213
0.965,-0.03247099928034644,-0.00982505719830252,9.400419095985425,-0.0822037826408394,0.4457253235911471,0.6472349434267924
0.97,0.15809901981170044,0.14888930514692897,9.849479113429384,-0.7463558576286917,-0.0940888654646565,0.019360050134367108
0.975,0.26155673078350355,0.0722480461797653,9.679543344302509,0.09861382192449332,-0.42432746106956376,0.509220751618296
0.98,0.13181850304100431,-0.255914754455141,9.665376328433432,0.5732033551681696,0.2609671931517862,0.3014656291098268
0.985,-0.07887646140422895,0.32299355245054234,9.59492939322935,0.7195870692153961,0.22649829939881008,0.5344507518831015
0.99,-0.014992038678543238,-0.12905440297724177,9.595770843374535,0.3189889722516875,-0.2023244470228048,-0.09654275453964781
0.995,0.3817052894492462,-0.006799260378526875,9.773396941639811,0.6898949063827582,-0.05181587176593984,-0.48066789068226823
1.0,-0.1856765662302038,-0.288658284182357,10.079822337492178,-0.13349779182886226,-0.4916042555067832,-0.6862643869262155
1.0050000000000001,-0.26970296189753223,-0.134648739395478,10.051453645286703,0.45855583765260904,0.6064535350042654,-0.975149952693328
1.01,-0.23183493262538205,-0.15225288421820812,9.69358386948799,0.8282563095639309,0.0052113210075363375,-0.03455858725404458
1.0150000000000001,-0.27293243601973666,-0.02005002669537168,10.10317826796196,1.12984693591207,-0.5132961033812142,-0.77546946149954
1.02,0.2618090489947897,0.12518387186322397,9.552915152911966,-0.5685741885669949,-0.5321074363171582,-1.0693692297601503
1.025,-0.049182202459341046,0.011015193550325023,9.870451108040722,-0.09790571570766335,-0.8346014574557763,-0.3169876882583549
1.03,-0.16450512623774105,-0.11850152046303544,9.83378019857443,0.19489069355172747,-0.0193626136330798,0.6564826455011128
1.035,0.404040267957161,-0.055652386315339586,10.185288472577982,-0.25808136567053874,0.9689629292556755,0.6763354705034782
1.04,-0.05261915858272928,0.24879768810041086,9.478108387566698,0.11059646361532101,-0.2776350546137534,-0.6149734263622768
1.045,0.11462492288246601,-0.25407919006914875,9.824630396883355,0.1476204624440103,-0.22846746925527467,-0.743677963205209
1.05,0.10547540584779398,-0.12899896140435976,9.6467940863947,-0.6543233101758916,-0.20096218706699492,0.12649068448961698
1.055,0.2628629247584035,-0.14339085774083177,9.9945469772501,0.005811346892922877,-0.5747552893602476,-0.6389216367131935
1.06,0.03260360644968645,0.363886557674336,9.728177841461198,0.5602565255734889,-0.28738572000627904,-0.3185373761361892
1.065,0.45029979459346614,-0.1143180725477696,9.581375514570666,-0.4345401682651601,0.20866869172179742,-0.36350005763079374
1.07,-0.001854567486291494,-0.09921263150290383,9.788939449832988,-0.5338496632564801,0.6493233552925342,-0.19695831850725148
1.075,0.12003006622029505,-0.1358102777792285,9.607772019963198,0.24820803228833127,0.5375982660481765,-0.6140080542950637
1.08,0.05568826033785952,0.024349808467405473,9.786630252851852,-0.3807499926487472,-0.11406017437154445,-0.45633805269508715
1.085,-0.0011030286298695624,0.1610964852533564,9.752314153754071,0.283577520905078,0.4852521006911696,0.19762826901135852
1.09,-0.24211244382499456,-0.037396341942211524,9.550067834284983,-0.14618501758224892,0.4763491479337218,0.389506178837005
1.095,0.2064006741314239,-0.38883702970918743,9.876429657109767,0.4879912046182718,0.45170139147445,0.6706075148130727
1.1,-0.15040148571720735,-0.148640335228139,9.84218077428593,-0.44699934541076464,0.018659800678204063,0.2818263684377407
1.105,0.02845049424419721,0.002512851478464505,9.7416161572007,0.15382955544555424,0.6883684816474374,0.3749640157227403
1.11,-0.20251236051264077,-0.16752213614487665,9.83489689486214,-1.1175523381118015,-0.3454464170671122,0.10863738094629871
1.115,-0.1339694945802727,-0.011059215115511856,9.675652130537285,-0.4987924758016833,-0.32077608635017263,-0.3726178821658601
1.12,-0.209594009158868,0.18388762555860622,9.615350670955573,0.04926515877703748,0.47090986791833167,0.40834531382469924
1.125,-0.12666132190285104,-0.04883315500405993,9.542713805670019,0.3705632227486979,0.08209410376972372,0.3149696933653408
1.1300000000000001,-0.2989982647210637,0.2144717849489115,10.11943456393078,0.5695041746724645,0.29867825892399696,0.6860276166125779
1.135,-0.05225163131801466,0.08924640112699578,9.607011366463757,-0.8902789471708171,-0.15299394404286276,-0.3586927888163319
1.1400000000000001,0.13764253520518016,0.24988293161765657,9.877499445196099,-0.8653358769766436,-0.05948885995386835,-0.1647142607234206
1.145,-0.19796870923384566,-0.06309806124705042,9.894258573643045,-0.7436609238441618,0.4210663677703785,0.2386366281577405
1.1500000000000001,-0.3405088377059505,-0.21964512048317109,9.942380759415089,0.25409962396678115,0.3797472554072582,-0.33340374194461136
1.155,-0.2434176703560833,0.13908795287005568,9.106874818723647,-0.20705546661114574,-0.19620832334592156,-0.6042677556932384
1.16,-0.144713644135557,0.1053013239494856,9.669659830439814,0.5928348010687958,-0.11993235311204287,-0.21617085379480588
1.165,0.026273453788937775,-0.27937050101886707,9.84040544646709,0.3009000584525842,-0.21441564668605137,0.6888879772941383
1.17,-0.007653148233467794,-0.2729079992924727,10.13128152295064,-0.3348707531676219,-0.186802476256677,-0.1328310615120176
1.175,0.09770202448527504,0.5001822535949201,9.803417138162784,0.11876444156487834,0.22755679760780695,0.027495541088854925
1.18,0.004780718650378644,-0.023563692245929208,9.982907660454934,-0.9412035714876116,0.5676303291634738,0.24485798604027464
1.185,-0.11867957602692483,-0.16979820799147113,10.133619507240589,0.13783877338601544,0.15942661304848688,-0.20616670570098258
1.19,0.06415209483242114,-0.07229839735920558,9.464005184441957,0.6458490444806233,-0.6206646525718776,-1.0439501351769327
1.195,0.24142645544247296,-0.10794605274991242,9.944980588418348,0.804383841794551,-0.08155704054085662,-0.40121899911944403
1.2,-0.0703092718681103,0.32786991388512243,9.308025089705149,0.31115199691204765,-0.2464654979582004,0.13524240243763627
1.205,-0.33723570455460294,0.004154903591553755,10.23440179322152,0.2920895457125232,-0.28950565069629,-0.4474855856315261
1.21,0.17563246436705723,-0.03944015770402297,10.07350063906358,0.2285370115042431,0.09321670371400594,-0.33286643985400216
1.215,0.012280148317847232,-0.12903790733421291,9.848468273401325,0.0716506068474362,-0.8485841563716496,0.27909549428881497
1.22,-0.3874958412256966,0.030842512253668505,9.934536141479926,0.4052850189753917,-0.12267578019794485,-0.04657385215874303
1.225,0.14866695789641457,0.31353926062326376,9.811929771645818,1.2975445120490283,-0.4014273080460942,1.4159297895667708
1.23,0.10530939436417075,0.06312010864441218,9.711498587021545,-0.5018752071169443,0.02216383280115507,-0.3761817500402406
1.235,-0.10325929097749587,0.04600142623471061,9.957788094400883,0.15351369386710526,-0.41582726472283565,-0.1652345786808046
1.24,0.1260646164543748,-0.09148125126464918,9.332521709034344,-0.10735742337903402,-0.8762183359632515,-0.4757414232883807
1.245,-0.011801284264854744,-0.06886568626229693,9.669090426204278,-0.6349781009232756,-0.26472480296286277,0.5617966047428499
1.25,-0.0022202406601445823,0.09802693511160901,9.608775514268777,0.2784354674105683,-0.8847271575010307,-0.15765342870479002
1.2550000000000001,-0.45668735419898976,0.133229661319435,9.853091070441836,0.21969868360042144,0.4419419539297565,-0.06850108130610404
1.26,-0.017538629889350357,-0.5757115794286027,9.685757015817963,0.2752613684080451,-0.23306855372230392,-0.7308866584604219
1.2650000000000001,-0.021685836333777964,0.0835729056195133,10.029229319309584,0.14022723656401026,0.32909417526525664,0.7723998043276762
1.27,0.09159562723501609,-0.04951053728943467,9.948787340056477,-0.35370855899646253,-0.05773195112728848,0.4580672137252975
1.2750000000000001,-0.051902069044216986,0.11442603604924734,9.847652521706252,0.08865659770977301,-0.14626995163587295,-0.3785276154693406
1.28,0.07445060505419403,0.0044169742634584805,9.587160560577475,0.5398911819083024,0.27190255087798343,-0.5745374411263965
1.285,0.07292639431898174,-0.10407713108333408,9.746494033620653,0.852954142686336,0.2722756119045845,0.08445158629729838
1.29,-0.26339713984844004,0.11319678815320147,9.837504619718901,-0.12288194100358583,-0.06794537071366102,0.1364930203939978
1.295,0.19267082218506776,0.16668004029475614,10.328665565092486,-0.4635075493140932,0.29686150281439705,-0.07365423633830588
1.3,0.2862824643296579,-0.19988375893523394,9.66355924155871,0.3445886608966078,-0.2769676213739819,0.09595358455126246
1.305,0.45298722216518894,-0.29233683663965165,9.70670103961357,-0.05985090829694344,-0.17948438376974166,0.1981855664601208
1.31,-0.15094904957023378,0.06359285286532983,9.953592873737904,0.57735908346216,-0.40496746423667845,0.6614051691313017
1.315,-0.17685106577819962,-0.05461461175646697,9.449497630544915,-0.01931365565763718,0.2224445994097678,-0.3875009858684717
1.32,0.2957271238339549,-0.18074987877754609,9.650882416634241,-0.5428766978057945,0.6701669831248981,0.19543538894087203
1.325,0.25553704228025015,-0.1853690989420121,9.735077249890638,0.2123862983045532,-0.28201680884846486,-0.47158697135183664
1.33,0.0545252425810857,0.29509879531945654,9.873351525863349,0.4143005579766279,-0.4378263934053095,0.8631171915091292
1.335,-0.26035669622450797,-0.05354632577780514,9.839644465243305,0.7490771551762295,0.23539258472982483,0.6516376139302554
1.34,0.07394626319178484,0.07387084298140077,9.794369712714381,-0.2601595119312146,0.10535855326726029,-0.09332974629237177
1.345,-0.057056702501498024,-0.11846867581631387,9.545852292353821,0.04126630822612305,-0.3912374214245046,-0.9024037416750953
1.35,0.22851842581666487,-0.15134370123981064,10.070429502303316,0.88311931767276,0.10417782814962664,1.1325431100287113
1.355,-0.12804891888141054,0.02376450471316957,9.692457403126095,-0.39071600491432584,-0.4372613446249733,0.11065702740146692
1.36,-0.03596437553555926,0.3359759017442075,9.46372923931689,-0.8191025567332032,0.10532241319964906,-0.15287142614157606
1.365,-0.2688041120639208,-0.03447229777766745,10.038447015281236,0.840561872696422,0.5774527358398454,0.5212143481779085
1.37,-0.0788181856785282,-0.03165702068183708,9.581236868778726,0.2549006081980541,-0.13389970387698621,0.18466204344692916
1.375,0.045977882091789796,-0.13662075885370303,9.781368117018086,0.26003191852692653,0.2202658785461615,-0.6367866434340475
1.3800000000000001,-0.10555006950712378,-0.05374849765722866,9.611786859720523,-0.24085758641895236,-0.5933038745990509,-0.0019645694410225082
1.385,0.12912119327883542,-0.05627053505887761,9.77461526275015,-0.3182911284545513,0.4383882508796161,0.5754788341633748
1.3900000000000001,0.13348691955567737,0.048446852367924766,9.785583655706954,0.36282882940923983,-0.23005146414255156,-0.42249732364784937
1.395,-0.03992379572587107,-0.1254620176062768,9.854153051625271,0.1390813340219296,0.1370545055562419,0.8970439396702719
1.4000000000000001,-0.26307734760815366,-0.22664791511609864,9.912321538227296,0.868577416253888,-0.0885603327089346,0.2471313165233513
1.405,-0.1178157130040036,0.0848886175491686,9.652808374106527,0.13288284117192742,-0.2980626474951365,0.10342880840471354
1.41,-0.23187334393324927,-0.18646588088339006,9.666056639562909,-1.2638849096058178,0.8624372454074173,-0.10866607902920121
1.415,-0.21798969451029968,0.007605610276828333,9.756355734426174,-0.7317062250491259,0.10123238569273015,-0.44084863041034544
1.42,-0.2791593202760596,-0.07776764995566496,9.62798437649575,-0.4577453696385799,-0.09309652388231042,0.003226336009428136
1.425,0.1246283891188552,-0.23483923736296342,9.702993249239638,-0.813941634550727,-0.2793891836573659,-0.4210698110780635
1.43,0.1698839760476176,-0.028844248292542802,9.528685036005095,0.0433991495273957,0.4944314514726144,0.04639683053441957
1.435,0.06377493662269317,-0.10387098884819933,9.494301385440982,0.47826588071990217,0.3081705613165517,-0.3810112558368334
1.44,0.2698557729881131,0.1285662856495452,10.416732618388991,-0.17071236046686775,0.38607608651265574,0.3782112883226483
1.445,-0.3931259226472762,-0.13015572022552396,9.859752752336846,-0.10158733034164939,-0.6893702257608632,0.8068246888258374
1.45,-0.04122449357146759,0.12558350119101905,9.736317067117692,-0.003909086472135312,-0.006894339776678734,0.09979399816129053
1.455,-0.304582996816108,-0.08553177950996702,9.898444591784065,0.24680542072005981,0.24827890479881795,0.007805026457183115
1.46,-0.011876205597484457,0.12323488757309152,9.586588207622098,0.6849245413030741,-0.07909901878453506,0.03188317028591626
1.465,-0.019869071391704057,0.19578306706018272,9.96774899991132,-0.4493938855319146,0.704140483992605,0.4879911271383552
1.47,0.20634338429908855,-0.3821103556380986,9.856707630173814,-0.10044447132714333,0.5186712716432725,-0.5100933604287664
1.475,-0.15491604178174523,-0.22190285469363716,10.1288698696537,0.12479660841483252,0.35992990463627383,-0.3021992801764627
1.48,0.05839105156997493,0.2445623359351664,10.116262512136482,0.9170231820322625,0.6866720040295148,0.15017546706170273
1.485,0.1506784526865875,0.17072237131984094,9.628540948404448,-0.23287605901697866,-0.7105145091431458,-0.2389211276726673
1.49,-0.0885005520278627,0.3522212028252033,9.410411159432257,0.15287152397564252,0.7767884206905676,-0.38981327003159066
1.495,0.11457523103589523,-0.2314421801165036,9.684946692354064,0.5102276554534863,-0.09464296652669432,-0.28159195728023156
1.5,0.17790984943842608,0.07492624090094735,9.603037022133142,-0.3418093045805789,0.3985486037529957,-0.9047056675760664
1.5050000000000001,0.2592707809316043,-0.36187558378301304,9.976767015289463,0.08039493814793713,0.024396974301408626,-0.09389053203248397
1.51,-0.2973515214703333,-0.14644993602277612,9.866422489031015,0.6840132646972,-0.05972360669830357,-0.00817403391420862
1.5150000000000001,-0.19821593709762284,0.23015014787574795,9.482605825695408,0.2773555467730664,-0.2734376444957038,-0.40683224176232835
1.52,-0.2539984574452534,-0.1736056092881021,9.903868343339608,0.01487397486284149,-0.056915870002870024,0.13961580994991532
1.5250000000000001,0.006264081397667491,-0.14668526372246254,9.696068554269702,0.3785140193559114,-0.4219599400959395,0.1676724593860238
1.53,-0.5214655432650184,0.07737330969676266,9.57970383751611,1.1143099740091433,-0.7677136880045908,0.12315936601183432
1.5350000000000001,-0.46404286607449824,0.20242662351511884,9.681578907838421,0.19002525131330578,-0.6441931765311589,-0.2536305017242504
1.54,-0.21173124692798223,0.11333657456215385,9.946632527687727,-0.23892115056949215,0.4308101993617674,0.3870840610324241
1.545,-0.07483317506926374,-0.0009706603500192488,9.889473602458704,0.3764525466581209,-0.24372297828961342,-0.5818425902920453
1.55,-0.1138553467931456,-0.05752925231194055,9.9537394349859,-0.18275090562193472,-0.20301693753990674,-0.18917336685890107
1.555,0.38256970711465516,0.0714655236098574,9.971861502113871,-1.41512505449237,0.45414018066961254,-0.27195053765014543
1.56,-0.12783154259116722,0.3083130635984648,9.6895721656795,0.3830015515406429,-0.6211836051069918,0.10107862379319271
1.565,0.14965087300191346,0.0869537990943486,9.865239029778174,-0.17713881423603572,-0.02787129915722886,0.1723002649477879
1.57,-0.06894002767321956,0.14079469942271944,9.219368586492411,0.3980784829347372,-1.0904671646326145,-0.14315183260404432
1.575,0.30750499975798573,0.10744735865604456,10.192449893174881,-0.09239544235165123,-0.5929940299217249,0.4179898656597596
1.58,-0.1499757252388586,0.3578264842472257,9.83245845015817,0.6146801402007865,-0.3382679676829732,0.24317083202474657
1.585,0.3493006795438114,0.1806786875494097,9.888999665717007,-0.030137168162551742,1.0498832941614142,-0.9238205599914566
1.59,-0.14746592313528603,-0.37797306625868843,10.180425397727989,0.3879974946629119,-0.6078070866089565,0.7065578105246593
1.595,-0.02105045715878785,0.3804481927383079,9.83072852283255,0.32856982814209545,-0.1683799091452088,-0.17981447076382856
1.6,0.06172580769517874,0.25424033196535073,9.878009518775594,0.47338743585177956,0.6961114442134182,0.032908741063969224
1.605,-0.0683010827592701,0.16320552856033477,9.997594776151074,-0.3648110839063661,-0.9015568945275574,-0.5625776950740213
1.61,-0.2133775572983154,-0.10948951253940481,9.569086204300826,0.05621880437259257,-0.10988082857571986,-0.8097549236023646
1.615,-0.12215777599734622,-0.33745767538657323,9.800222567530385,-0.10541524867548072,-0.02170866128645384,0.22166060123488743
1.62,-0.0009456942923106393,-0.3180800262065233,9.878138014544135,0.555619233283964,-0.19943680429977267,0.44215342124572204
1.625,-0.029975435748071738,-0.17898559627530072,9.746979119721612,0.29103857003691697,0.40094373219729135,0.006181912017964275
1.6300000000000001,-0.05558572917827015,-0.0067454571447513505,9.824190388689795,-0.19514186579950418,0.3141728746027439,-0.9145310259213572
1.635,-0.05413700820525419,0.038843182134944844,9.58650069360558,-0.6865343904163482,-0.4385467436494876,0.18069138712244445
1.6400000000000001,-0.30561657680856574,-0.050094471195282146,9.849431149640825,0.23043274277547965,0.12842210257345826,0.6841637452100533
1.645,0.19688492946594374,-0.10881384928201798,9.660995696770941,-0.09394167343667832,0.35545496175600233,-0.42912806268315623
1.6500000000000001,0.10048124063728539,-0.001251837980080158,9.911492672485112,0.9562618464028786,0.011455018053349806,-0.011923135289155203
1.655,-0.1861041159948392,-0.09724657154195185,9.856226429005462,0.19123364192644296,-0.7980755763213819,-0.3033526452115813
1.6600000000000001,0.38346834463234014,-0.009709738564859332,9.30689284985149,-0.29859215644923515,-0.07155216446592605,-1.1827810830463374
1.665,-0.16617000253101988,-0.2336244775227407,9.911862474060772,-1.028778065627453,-0.07051766018370284,-0.4097825069874417
1.67,0.379409877633335,0.009802623191385976,9.956501750462333,0.26168827594773053,0.22604339683176025,0.747202784405842
1.675,-0.044258784707684434,0.19503083525968412,10.052894452563912,0.33205651412112575,-0.5965312602992173,-0.13706842706607658
1.68,-0.12738116871150482,-0.01270217383878679,9.807800427877167,-0.8471932726829605,0.691816468921711,-0.0977985296915679
1.685,0.3440326864443351,0.020141463888597236,10.083230493852543,-0.7647166530417595,-0.24373711285094646,0.5461243278784664
1.69,-0.06996654101248241,-0.17879691445461826,9.908827554934307,0.08149576143127725,-0.1798366364251159,0.6883018011849433
1.695,0.07485415790709656,-0.02258293932629335,9.886893590860721,-0.2795929285492446,-0.3255353777103984,0.4145197451239038
1.7,-0.13831766690657257,-0.02912473736042492,9.972354577715105,0.4130043355104263,-0.6852091866061142,-0.09636748500672425
1.705,-0.20322025592488538,0.10876266710693026,9.733914665385552,-0.591069053131447,-1.1363210681208196,0.5904808225717698
1.71,0.3636726907643757,0.38739357619923426,9.510805930176485,-0.7479515462470168,-0.6745083590702223,0.6818833362478486
1.715,0.12108159423990571,0.16684096642739232,9.46235883230335,0.5978673353649842,-0.23238101798732155,-0.03927010079886321
1.72,0.08658482222372797,-0.31000686561366625,9.916803697566674,0.20520312940366686,-0.5657303832540015,0.26794983794620053
1.725,-0.3520876311201456,0.08384260450778262,9.863975422372066,0.5211167744914283,0.333747598459726,0.7012673483493053
1.73,0.10991378716652503,-0.15843342342713426,10.099842896815797,0.5195086528170072,0.8421747251613042,0.33236515308394
1.735,0.05046169751595712,-0.03201133392873188,9.649016674584528,0.2207378774367802,0.21114934803931232,-0.35520914217932237
1.74,0.078954231680743,0.1658746826621311,9.64532838544611,-0.9643610384199918,0.4070356446268463,-0.24229412075724255
1.745,0.06849220642966215,0.27604283900573356,9.953794813163123,0.43979206362340506,-0.08378714137756349,0.10369910457909493
1.75,0.08435660384752958,-0.031982892175450785,9.660310351980504,0.16232655559520992,-0.5482790894600634,-0.1192575113620457
1.7550000000000001,-0.10181679048540078,-0.022015799299889546,9.878681156403678,0.0005930871565929723,0.3504414807917012,0.12171979229057965
1.76,-0.27692786013895854,-0.513479070115925,9.805286760436765,-0.08340442872005929,-0.5288477223507198,-0.8078690604159077
1.7650000000000001,-0.03859014853363189,0.015574289880003117,9.70485124106867,-0.19263024369445383,-0.3540372139867234,0.6763850353063929
1.77,0.13097415501109053,-0.10781262538944646,9.752859186004217,0.021701556175161327,0.01774016091553533,-0.04754609156697163
1.7750000000000001,0.194575451813114,-0.005124333322123432,9.963200281249536,0.5026980452007586,-0.5821318086501286,1.0538341334384667
1.78,0.14718171691091297,0.17766157711401104,9.922217387478023,-0.35221331365485276,0.231142267272321,0.9899158426026768
1.7850000000000001,0.001233000478089677,0.389823648388711,9.353881121712751,0.776763654168642,-0.6908333072884437,-0.3890623632401866
1.79,0.09694079127925652,0.1277347497207956,9.762715912834219,-0.5195277866454909,0.7246742084463533,0.2808529348212287
1.795,-0.33632806312713104,0.06028175054058748,9.528798836056577,1.0806357138715343,-0.09741419237817507,-0.6227125111484523
1.8,-0.019962620748332494,-0.11812317445773904,9.799913985506063,0.14725058026379836,-0.6698336567305332,-0.13356816523084766
1.805,-0.012398073398672809,-0.27519030732167243,9.792544891058785,0.9176729915429876,0.30390290768190453,-0.8927322859633535
1.81,0.48091153709301493,-0.261708382203379,9.661335785532001,-0.2637457085252628,-0.5622446942210793,-0.3363740580555499
1.815,-0.010679223252546223,-0.054781609368022635,9.50479381016023,-0.30584747023088493,0.049877376229877854,-0.6628283477650734
1.82,-0.07431487814964413,-0.05088644403892704,9.68900750191302,-0.09135700244468886,0.5199025731915848,0.052778481053065845
1.825,-0.06686417964441355,0.21970031261563105,9.76765814386968,0.1361251396827773,0.829416159418039,-0.6128865521631919
1.83,-0.18468465792643607,-0.008727878883959676,9.894778708055862,0.6307074407099539,-0.6084573078387827,0.1202764135685944
1.835,0.03382446710370738,-0.03602435253123944,9.977721127201882,0.31278882925633866,-0.4868444334103466,0.43693748299871676
1.84,0.003089649398231154,-0.3684836566456038,9.690640153835131,0.40508334867810425,0.5292904293387224,-0.5094905611123092
1.845,0.234251415419542,-0.2932822516704954,9.773216839531909,0.10875123471624049,-0.6457046978965983,-0.347194377724247
1.85,0.14610720156657678,-0.27078130270594086,10.11863733971049,-0.23495010984229536,-0.5442610538234084,0.40610682971447126
1.855,0.12667491419132793,0.22772900411259434,10.052556936803738,-0.2499104189514819,-0.09873803139408002,0.3393479632797216
1.86,0.36197820975456185,0.0693763373224661,9.716769123892954,-0.41855599968534657,-0.442793135678285,0.20666719157788335
1.865,-0.21481355836612642,-0.3344424360017886,9.547765943928585,-0.47145871263349537,-0.0802842225714023,0.0438173040651602
1.87,-0.19868316833118854,-0.1654526979088982,9.785206442409287,-0.09513051164229379,-0.06491088884242388,-0.31197502181734893
1.875,0.06111066718799827,0.20619034448203297,9.597644793201665,0.14926372505861074,0.16170261045284728,-0.2627939363552374
1.8800000000000001,-0.03868129183241736,-0.28327114020284244,9.79987501138289,-0.37689558561617015,0.6251307543238828,-0.4456208729615559
1.885,-0.33183303002407977,-0.36396519419557194,9.485452977768261,-0.39296889310658617,-0.32971326358196196,0.8502251723315782
1.8900000000000001,0.07786248493100612,0.31375218113995945,9.65498047583856,-0.5214229978843835,0.02729666604420096,-0.6857855901163598
1.895,-0.03569396658424779,0.019850649439657645,9.786588428870543,-0.6776832687446473,-0.3017618674400921,-0.41527557075716826
1.9000000000000001,-0.06929940415527522,0.08329401648342008,9.90590599352221,-0.34716128551951647,0.3311165246992536,0.3045418076154153
1.905,0.030516631777887472,0.006494035675639019,9.647554273912888,-0.08551729872141788,0.04507364679266339,0.6897014958049666
1.9100000000000001,-0.042338538547823566,-0.07300664905576483,9.974046855924108,0.2071096466892611,0.20697143667074688,0.4361654464224032
1.915,0.31463666534722257,-0.12328498428504481,9.854553241306647,-0.1774373433990424,-0.16048622162212736,-0.40536284185679144
1.92,0.20411101324804026,-0.018235569966915374,9.758210222320967,-0.6011478071253031,-1.096228109133709,0.1485201142084422
1.925,0.2817639235749338,-0.2731104142817052,9.684568306858685,0.775514512005961,-1.040350222332083,0.53490881629997
1.93,0.41952879911351826,0.1014997367251967,9.718149736732984,0.1321790522201537,-0.29001420475336664,-0.3993047393892385
1.935,-0.014957611059491489,-0.21974323745248073,9.417515109333488,0.37166793306308654,-0.2507988656193371,0.1588896103672183
1.94,0.06167636019592853,-0.17364331697943503,10.08187697666335,-0.12146036803550755,-0.10432283019518299,-0.23176289158282912
1.945,-0.07149943428713752,0.43384694950604086,9.837464247317966,-0.6574112074024746,-0.2722497844120407,0.013987026111933122
1.95,-0.31571068971895294,-0.029838132671093972,10.021319649193819,0.41498956939777687,0.2230443623359116,-0.7681481133192478
1.955,0.20124587486033196,0.03091062847233817,10.02819048137516,-0.6284923626303104,-0.003488832511770294,-0.8502626517802169
1.96,-0.00835368008919082,-0.044570268787195645,9.76369336183748,-0.5240636069723281,-0.44044822480533224,0.9774933161941552
1.965,-0.06592926249750126,0.17770117127753485,10.061786099260589,-0.1882984535561678,0.4809720367368724,0.6856648437674755
1.97,-0.02369915743940438,0.18332694195327545,9.691601138041566,0.04124082878759181,0.8392110171547364,-0.8655779401691466
1.975,-0.005953592877413829,-0.10004356934470958,9.710366977241652,0.09973091650423638,-0.17613018574780473,-1.0388053659218124
1.98,-0.25357682607314636,-0.020785931310943667,9.655486808158553,0.13561509431692673,-0.031098051287022477,0.2759351054463417
1.985,0.05108276145713597,0.09050283765211015,10.023344137393284,0.158308663168862,0.11413086695571237,-0.48369058844045376
1.99,0.017716998574427115,0.1754846645897412,10.336937141938085,-0.5171777231352429,0.3144848818677524,0.6207487217059097
1.995,-0.15206367073685914,0.1146625235586286,9.882748313993519,0.4630609683326668,0.8575661055284278,0.05137575561848559
2.0,0.03226933306645653,0.008508648661084594,9.789313172968715,0.20299791303170908,0.3885299014398999,0.612574255537042
2.005,-0.14826916626518805,0.04186077750447023,9.935411660674482,0.4934276727310191,0.46483664233794764,-1.0484174287885593
2.0100000000000002,-0.23781650253979347,0.053487024188764755,9.86454021232369,0.3727936197796625,0.2126285808559569,0.29583529949457715
2.015,0.07931657286007644,-0.023050097576376265,9.776863846355642,-0.4292423875342008,-0.06958287499245483,0.35257231913871906
2.02,0.15325340758632544,0.09386150874169324,9.806086112339681,0.3464795406694988,0.063568388295727,0.7848194668195684
2.025,-0.015503956381111045,0.1373339038678262,9.720066938847427,-0.8349824666036525,0.3004838749301304,-0.08772159938395263
2.0300000000000002,-0.054758095333555884,0.06669898595001288,9.931769351161376,0.19219982502884844,-1.1725735115690095,-0.13486732116823466
2.035,0.12048866086317772,0.059961864427957125,9.524961550932534,-0.7079504302178647,-0.18312582006145833,0.35978328856766734
2.04,-0.26202145976432556,-0.07989238375766358,9.72435632738571,0.5914892249850517,-0.44742802007675914,0.5671640352240999
2.045,-0.2889280028553411,-0.10625925241741492,9.603829685349126,-0.5413075872573878,0.32821283318796446,0.23096544993904625
2.05,0.30535947573202155,-0.1871395645824912,10.144890311525037,-0.5519453662184793,0.002142192435229264,-0.03464932218619837
2.055,0.1770444511065741,0.2251340438503775,9.924745998304616,-0.4148387523941003,0.7505439945738399,0.2642313841852431
2.06,-0.1869350273109627,-0.16757832770971914,9.636376387340185,-0.40419144779223437,0.5001223443895702,1.0171623191701535
2.065,0.03714193192981365,-0.2257133654833866,9.872102222680555,0.22685336558685978,0.5076507383457869,0.7330576733465516
2.07,-0.3204387547289722,-0.22424586340731284,9.930914206434059,-0.4192996189574596,1.1577429429605555,-1.5035713683283778
2.075,0.0971299519374227,-0.021288027946604806,9.708970696611892,-0.6514299452289853,0.3063321411390274,0.8343111189785944
2.08,0.27988117367784326,0.39191228288173535,9.532347670721137,-0.8167910589894966,-0.11343832696369696,0.3286716706465586
2.085,-0.07154705033276512,-0.011916100477448968,9.892821863258783,0.6485851765442335,0.5375277550358208,0.18709781931058245
2.09,0.14118918077848355,-0.20612250389428724,9.825654168009873,-0.282950249167481,-0.2051417825401851,0.9606527937380658
2.095,0.01317400799188587,0.04387601468117073,9.899976219149753,0.6684128336424242,-0.21799596206575442,-0.27870100296530226
2.1,-0.00494417242558703,0.05193039751010742,9.713756987717801,-0.17512371435059704,0.5152273192892259,-0.2886203653310315
2.105,0.11819024762864785,0.4284609463445831,10.04952897226811,0.08641528824844427,0.35852340811433137,-0.2983824189580645
2.11,0.34295477629485793,0.14811694391458244,9.624839476200638,-0.33966228477299915,-0.8097442716133642,0.47608311198530345
2.115,0.34784238069213136,0.17602382061895225,9.431041365443502,-0.202259850269446,0.1856635605737699,0.3203697460192611
2.12,0.3580054069850842,0.19770286174840845,9.771232518740758,-0.45057943874244727,0.21065278030047221,0.1487122649713081
2.125,-0.1395512646956403,0.019416866939028415,9.518242618824445,-0.7483488516597262,0.8774897465920943,-0.2500582956004992
2.13,0.09341042567320221,-0.37277106589342773,10.030002043102032,-0.9514452663393259,0.5447992701455683,-0.3446843756919508
2.1350000000000002,-0.058025326227354394,-0.05230820907966152,10.150567284054995,-0.4510640497086968,-0.6867611804612637,0.05568957087214506
2.14,-0.10272490231315748,0.0015795692628314826,9.946636171860938,0.4762517796446093,-0.03203785738811541,0.7957246168528718
2.145,0.22973741657237318,0.0019361994978963262,9.532606601802145,-0.05766994778744886,0.4615224199861829,-0.008811199715866894
2.15,0.15091471684804808,-0.16488620793105924,10.083057770636412,-0.028108813493277176,-0.4353792405757228,-0.05393453897160257
2.1550000000000002,0.003776921672836442,-0.12013766399626194,9.528953043536712,-0.4177099090276819,0.41138202522577677,0.2887911787629818
2.16,0.12817301767520747,-0.13441417746862308,9.8785310074899,0.10190446419763752,-0.22065086494321212,-0.007230781890255164
2.165,0.15501931159220625,0.004246133290702512,9.96706415845285,-0.22251908357753752,0.46010913399102177,0.3920355892833846
2.17,0.13135425054495212,0.22250430376027983,9.656733253840638,0.29250926427311186,0.873438892033352,-0.6164194667995369
2.1750000000000003,0.10790389414578741,0.02667949062152969,9.86504217855164,-1.7720353132533653,0.3968192545924809,-0.6396715977421719
2.18,0.318917014353942,-0.2500005234350559,10.057467682255623,-0.36000320053800533,-0.8647289968696263,0.03705814931512926
2.185,-0.06358494641766023,-0.2668099247993571,9.369696356756073,-0.056977015415275584,-0.5418279045708151,-0.465159196900157
2.19,-0.20423885593830904,0.01114888060109136,9.84194934640468,0.21973393278722508,-0.5884830461005222,0.46631074507656983
2.195,-0.08680010501885323,-0.0377175663644366,9.753457787194693,0.9307024419162291,-0.6843303179836804,0.8424053982379819
2.2,-0.09658450782343218,0.30335410267032015,9.507882204850151,-0.5161585320386839,0.014025790694873343,0.4058379694708305
2.205,-0.11165575899576195,-0.11193802063928643,9.72990607984082,0.3204939214773478,0.05773922820654267,-0.9025950047666347
2.21,-0.00580538113297702,0.12545034652425263,9.786657873296306,0.28697454415194507,0.026071137307847443,-0.191152621792774
2.215,0.20020319597500189,-0.1451444631036923,9.819356738754138,0.4095106017675881,1.0355612646712389,0.7425972178245914
2.22,0.16585520687787336,-0.09478571259121524,9.927739858224552,-0.23925927737818567,-0.6338279860787712,0.0795214004059134
2.225,-0.12608497425600915,-0.1356773059333059,9.961237481215347,-0.21899441729129376,-0.8240076140683849,0.025103276891911108
2.23,-0.3397299404240206,0.12292579568976003,9.972200944979239,0.03487475747850443,-0.5262583311745163,0.8411605336531888
2.235,-0.3308075174351921,0.23760300071373897,9.855758324810385,0.0894362653707766,-0.6334634871950199,0.13813447312402932
2.24,0.07810267853479282,-0.34297637937042763,9.67903329049169,0.09524820948279342,0.13538647752958888,0.8538724148883434
2.245,-0.09022471363898887,-0.07449357742343858,9.650854043530675,0.4509114847337147,-0.3566877803029916,0.13025885318752864
2.25,-0.297565238031747,-0.17631584368963235,9.977515374284952,1.5142898358525752,0.34993026442250813,0.15593309570785593
2.255,-0.286998364321664,0.48311814542431747,9.339692817447848,-0.1401791097333225,-0.17529151863386713,0.8826207169900022
2.2600000000000002,-0.011174711016562559,0.04513836658501295,9.97255267446864,0.3938135990815462,0.27423186733169874,0.28536707164145597
2.265,-0.21059807149268736,0.32753931051755214,9.770855035018915,-0.3371746649401345,-0.7861521549465686,-0.9493621002080465
2.27,-0.0025378490951384895,-0.19742806888498401,10.121414134287287,-1.145055866258017,-0.2110244286051458,-0.6270721325088809
2.275,0.04439046808947747,0.17883712378936545,9.887244956364832,-0.7029820821291013,0.3755074563863546,-0.1998629024588539
2.2800000000000002,0.36401542976328605,0.18555525499029477,9.451679636599915,-0.10098046920137227,-0.2389835613244106,-0.5739025287534779
2.285,-0.34068110364724324,0.02035620900333354,9.476118794446316,0.3698925844811656,-0.15945787317818141,-0.47403372110585845
2.29,-0.3279580952083112,0.23077499062533874,9.738085039413214,-0.7174333959221324,-0.054197930496618266,-0.37400976689144666
2.295,0.14158103005319572,-0.047249181902837244,9.966585105596529,-0.06415435225907876,0.530884198027065,-0.6046194665345712
2.3000000000000003,0.18127524805324585,-0.023290330571641208,9.831018636882105,0.45703306902678137,0.4950018565100208,0.5738947117195116
2.305,0.3071451999535446,-0.31749943401355835,9.621792140939606,-0.33879285018398525,0.5495314492698509,0.24729538727064096
2.31,0.156541336008319,0.03690270261131464,9.81613780858486,0.5830750926716239,-0.25263005473337796,-0.7721064635987137
2.315,-0.09117199961759581,0.31377826162200667,9.803841127464457,-0.6786253515350857,-0.5304956526106172,-0.08698319071274176
2.32,0.0964045776433676,-0.4127201957790672,9.859352230924248,-0.24243916676701974,-0.043864851305126004,0.6811632887356839
2.325,0.0588266975706998,0.11608947186855541,10.05594302828396,-0.21010170257116223,-0.9661288093754135,-0.5854280064220472
2.33,0.03076414904082524,0.016929277938892217,9.766009666272335,-0.9074175768572095,-0.5808805982176277,0.23699748915967633
2.335,-0.15117428168924052,0.08841185956254419,10.301770706677017,0.34363232202644306,-0.7843764521002353,0.23057088299533718
2.34,-0.14046232272503975,0.3130066728703342,10.024581670863729,0.0656628077799917,0.2815022537661899,0.5603823659642874
2.345,0.1206534921849596,-0.10799698215922533,9.991859882366922,0.5208700479120536,0.23892670329273977,-0.4269120617955413
2.35,0.2248975610761161,-0.03399256289126081,10.410982829926022,0.36051029880480645,-0.19780466976182612,-0.2662475580502145
2.355,0.36264100198236116,0.13915395463042604,9.916149709319424,-0.198185411301628,0.157585350561753,-0.02487342646274042
2.36,-0.48884256407250604,-0.04700327873610687,10.015664044091135,-0.028423739344871593,-0.013859535042683528,0.6068272823845768
2.365,0.0017530590429453347,0.44692161133240643,9.96199055926037,-0.02325622051811883,0.20522867638333722,-0.6271202169109614
2.37,-0.018851580712524314,-0.02877410421832945,9.634077430656111,0.027856237087725725,-0.7235613799449011,-0.3482421543255542
2.375,0.19364027292129507,-0.044812592409069985,9.515618240323311,0.9105999136848969,-0.26352983158846854,-0.15660462525387464
2.38,-0.03162036759896104,-0.1681675888808473,9.640289030089173,0.6481299062518449,-0.07087528136577895,0.5813034504017113
2.3850000000000002,0.010313861652739315,-0.11559765009013734,9.556538692656003,0.008914771807334604,-0.3524334043701268,-1.0633020499648247
2.39,-0.01054813196903605,0.3335637234042296,9.63771698098685,-0.026890028516509405,0.07417732753879985,0.17928227148987644
2.395,0.07825012739418624,0.22885886717592585,9.486033383173247,0.26162618167894863,-0.2752594544084112,0.5290403818638914
2.4,0.23932837294952233,-0.26940963097522713,9.832078850896307,0.12320446688762675,0.7885315600146108,0.1540698041081642
2.4050000000000002,-0.11600595571018046,0.3750930078008185,10.003726904958551,0.4781342912710804,-0.7055371467612335,-0.5870032646335002
2.41,0.03448672379771305,0.11887618147376487,10.176290360281289,0.4643214110977226,0.32474440686804656,-0.6481822467417794
2.415,0.14956910745721222,-0.22233131711385987,9.773750407353708,0.28273862883257883,0.17670587053932568,-0.45635986939384365
2.42,-0.18264256515082253,0.1209626917403862,10.01334962209518,-0.08629466664072535,-0.5921734656402816,-0.10389128956226791
2.4250000000000003,-0.015264019852502725,-0.1351964983623725,9.837701620840317,-0.6859297536117361,0.4333342077776193,0.21740817797712217
2.43,0.1987635658917729,-0.021968479453443213,9.95066547468534,0.5650205031037611,0.1002126123602728,0.14806660734305083
2.435,-0.3222982485215524,-0.18543986361968617,9.839229798495166,-0.25328737787351807,0.02159144118027927,-0.346172848102508
2.44,0.12793442849619033,-0.14132200041750645,9.578367344497064,0.14916775914144376,-0.6146246199628853,0.48795145236399184
2.445,-0.04843197059927922,0.3481673546924118,10.008313711371354,-0.07812061516311651,-0.7727097968744919,-0.290061322974106
2.45,-0.15526281182687926,-0.060329123562908864,9.724514363917628,-0.06340906623579406,0.43978587443377115,0.9277955330798134
2.455,0.19155739696556282,0.34139666475317937,9.786414217320035,0.07751874931857415,-0.6229589816268873,-0.5219918507231975
2.46,0.03114889237029428,-0.3861465847177078,9.83389980503077,-0.026857709015126276,-0.2929153452577918,-0.5251071122779097
2.465,-0.21923285881856147,-0.31588275912329244,9.71685334698001,-0.4950159719908143,-0.5364384036511195,0.07299287555685648
2.47,-0.12439512949323804,0.2644087473695255,10.118719801999452,0.30697948110494216,-1.225741566693639,0.5952376708698607
2.475,-0.18675845111519176,0.03867686942444304,9.911376649510942,-0.38204741447490503,-0.2855985397491315,0.18304637349075845
2.48,-0.30368947818334235,0.13876000598609659,9.939652615636621,-0.7739259885382718,0.7329354062197766,-0.6802864950430992
2.485,0.1834257788139861,0.1692271996763544,9.74496839517012,-0.04546611831790503,-0.32701027845550895,0.32115489389934593
2.49,-0.18244806856782822,0.06797315936635688,9.72817328469527,0.7290681246081665,0.43551029281487225,0.04244386094676296
2.495,0.14369907161968135,-0.13279883143257798,9.866537105466843,-0.7234697716064992,-0.8617290763481781,-0.42132875628729416
2.5,-0.19353198861858695,0.0641919660714875,9.722562005267507,-0.5224767187634759,-0.006715112884876244,0.07733770318010928
2.505,0.7025716179483068,0.004589676117071156,9.741954217967892,-0.04781607726897055,-0.35517417296358667,-0.4499816788882686
2.5100000000000002,2.5184101699144636,-0.047140153931565495,9.563134661061166,0.2022168137226193,-0.44768868480073837,-0.10502551089683397
2.515,4.774819876982267,-0.04700153625705556,9.805474994404767,0.6636404933008541,-0.2899592500369809,0.2563344841933129
2.52,5.68313824641829,-0.061182663159955665,10.00957560779773,1.6821969932396217,-0.69497860137411,0.36559302872625954
2.525,5.710666058109534,0.4153711894992233,9.555509571900599,0.8374438079904493,0.12487647451675314,-0.008856845446205661
2.5300000000000002,4.231584768999908,-0.11051354025117888,9.884369721851945,1.5850735643323806,0.0033894512556701373,-0.315361188737079
2.535,2.4523914167660976,0.001779050496851908,10.07522685672864,1.5402890949966033,-0.22748541609450665,-0.034436739170446984
2.54,0.8270371005329386,0.030082127198021436,9.923622488944021,1.2935133662253833,0.8390149571919123,-0.033325424946146764
2.545,-0.0010860245727617678,-0.10905149880449538,9.38776129175442,1.8916402288755896,-0.5911982325291852,-0.24091407650460467
2.5500000000000003,0.5698951500380636,-0.11441400547114461,9.936518266663446,1.8641588703505427,-0.002476683680424222,0.41267746929767407
2.555,-0.09463781905884572,-0.050983613046833846,9.918633467107018,1.8132977228119913,0.42238863500602714,-1.0571002213623184
2.56,-0.12396950153546411,0.17021979495442485,9.927696060710282,2.2080788695474354,-0.45002962718847644,0.5476226769585859
2.565,-0.09427524060193508,0.19093801700952837,10.118924392340055,1.2469459783134218,-0.5186116872986952,0.3984763126723224
2.57,-0.221636212883487,0.2291169853001126,9.850978292429156,0.981276474065983,0.4547331324056712,0.38769701803116247
2.575,-0.2892110542282671,0.361940936103507,9.811717567013071,1.4601446635133501,0.2841408482813114,0.21258976336261481
2.58,-0.08538682495491354,-0.17111165374595927,9.874004063227861,0.8497404911155136,-0.2940927467844328,0.10360490813455848
2.585,0.20581923535944663,0.5218469551630444,9.742825129461584,-0.34653295432291453,-0.4319202655483831,0.32101650134577997
2.59,0.11165053786423457,-0.19572949261235265,9.667007652422157,0.2461025398072433,0.2151805828456617,0.41539173045910377
2.595,-0.21166772575290085,-0.32427942961271367,9.550973682086106,-0.27744328970088905,0.11931707632394696,0.33873516737226
2.6,-0.01811402593276179,0.006888845122042878,10.078074898418755,-0.6698067891118602,0.1603201826117117,-0.4473098653069271
2.605,-0.21101288205629753,-0.20873283484910227,9.90173294910652,0.653057204143769,0.1677905664441821,0.808448772538768
2.61,-0.023593732869552866,-0.5371198136698213,9.764342510684349,0.03434089722204454,0.15760915870454892,0.5686714957444876
2.615,-0.4539138640009168,0.06600988059708884,9.71421443758156,0.17198458584638998,0.6404740553212255,-0.7139278851658228
2.62,-0.05843517866833188,-0.4491680526873264,9.518216331990534,-0.6388957042187882,-0.6497802908453331,-0.04647118411515185
2.625,0.30355256627605187,-0.30776295896007744,9.595373436661689,-0.6362495815454342,0.7360587709515054,-0.06054705159278421
2.63,-0.06007063633439344,-0.13107503871888598,9.81569679928818,0.5711515962704597,-0.24939467274853055,0.3808330700558984
2.6350000000000002,-0.015299413199927723,-0.12895203470724545,9.851888909013503,0.39031721317430684,-0.20575326562070326,-0.3042846274978689
2.64,-0.01813597848867597,-0.16463504049585076,9.674118831394061,-0.10083738190468577,-0.41770595584093506,0.21805341094281627
2.645,0.042667101388962264,-0.06291597366327221,9.960140239124508,-0.1896199072309684,0.6655837860120152,-0.4291306627501832
2.65,0.08524903434085576,0.11802980854579465,9.827497203899005,0.11083372511598567,-0.5464966564783283,1.057838273495168
2.6550000000000002,-0.21142360540229213,0.12205344933177674,9.614614790631748,-0.831373106802388,-0.35619824389498356,0.521979580313197
2.66,0.0019220286196687951,-0.16153767916014283,9.876679398728275,0.019484716316597848,0.3279914630958647,0.13816146223502024
2.665,0.2505889281356823,0.2613263103732227,9.921537495368991,0.07331028218551186,0.40956727861427644,-0.2483507654180935
2.67,0.0798732228985709,0.2834390463194847,9.696822063630638,0.8095668027938778,-0.29587998432961,-0.6318954830939505
2.6750000000000003,0.06879210414948651,-0.18035264839334272,9.551203597276661,0.7687495940760334,0.8342856222763144,-0.1296032995843379
2.68,0.04813935869802099,-0.007311686157919699,9.702748611303223,-0.7349357209914789,-0.24363906385643638,-0.9520816208102095
2.685,0.14092161202080483,-0.09848570075341657,9.829349078074936,0.15458399798917066,-0.43560899664398167,0.6944815826329526
2.69,0.3067528254323995,-0.19316185933851535,9.832809128457944,0.5086806247493924,0.6389650279590339,0.47072397929444865
2.695,-0.29665820959123174,-0.14168923742565606,9.921979851472871,0.05861132925657226,0.12389270091797872,0.07824220692432632
2.7,0.07337730061149199,-0.0762942030549944,9.67692301997874,0.9234746106412083,-1.6266694370477104,0.16802781919919918
2.705,0.17325435675018086,0.0033725135543298404,9.764501545473607,-0.4780414889197021,-0.803470188375745,0.4046525536737602
2.71,0.2100034680910861,0.36105924367120895,9.868089682790036,0.5894945576573929,0.3477803891813489,0.6171441647207723
2.715,-0.14417009313677592,-0.2787979520849529,10.02053666401242,-0.7197847338368459,-0.3051653720550413,-0.42579936334416446
2.72,0.13768242020093427,0.031805522942204005,9.48541772838926,-0.21508785552128995,-0.023263909401414724,-0.489539057707951
2.725,0.058355254031916506,-0.030929883738784802,9.72315486561047,-0.22030915919864524,0.6773800623492495,0.026831347056810867
2.73,0.13781758607214767,0.1944341734764043,10.347657505641758,-0.033472345651511394,0.47476584124956905,-0.20681819240156166
2.735,0.009930720627483739,-0.3896004411416707,9.594014175744208,0.8518365194641467,-0.23596891908554682,-0.15035354398375714
2.74,0.15815094277572103,0.1152386413874597,9.645043368078577,0.24434193162728204,-0.889312575690719,-0.2764479155519954
2.745,0.38541741395739804,-0.0847920083785602,10.037911100962841,-0.6496894961204306,0.29090667558226146,-0.31076856074212245
2.75,-0.07671313802627842,0.18887480232846618,9.848652424308742,-0.15830991833307892,-0.017800566395012807,0.25041265258744727
2.755,0.09957990017723276,-0.20520322347207395,9.846510581341825,-0.6272318158784711,-0.5278601827000633,-0.7139682245233501
2.7600000000000002,-0.016026971971555556,0.3366036298363536,9.862355536462227,0.05148667356708928,0.15685654972742208,0.6562638921347947
2.765,-0.21627111669164753,-0.025972910443135107,9.439266289601672,0.7432376880713919,-0.3596431367014333,-0.26929021810486214
2.77,-0.34795968181588766,0.05068252258402711,9.693331808307631,-0.056304832621195317,0.5379710202236034,-0.8282038289192719
2.775,-0.3146382607987689,-0.016309955488206806,9.850862064761282,0.5787983529486245,-0.13228221484858962,-0.3166419465270261
2.7800000000000002,-0.07897263065899612,0.03009979373395168,9.757994856464457,0.1012534657442802,0.023128166058232428,0.750896544507262
2.785,-0.12038226343346091,0.1491542406277373,9.908443831403439,0.6056332590493733,-0.19132446782011656,0.2407925686686885
2.79,0.11105152718187361,-0.2950246583014504,9.573719449210994,-1.215343924700035,0.013718707338766636,-0.3282152202224612
2.795,-0.13596057088126845,0.07434615436717663,9.821942010682658,0.3434665973118046,0.5255988327023682,-0.13987230965554223
2.8000000000000003,0.13472049515849432,-0.03427144341034255,10.03906878563271,0.246868602332387,0.2869849633742755,-0.2529663543463487
2.805,-0.022610037565745065,-0.09616813738086252,9.747830099470919,-0.17876525694290724,-0.35520466839821946,-0.22380919694393853
2.81,-0.026267258740094987,-0.3017360648062032,9.972043985910432,0.3421747702289219,1.3822048752079357,-0.5594240682330874
2.815,0.08593977468215128,-0.46614598616764324,9.680338293629665,0.9781425893632725,0.15076712363143482,0.11640807263084404
2.82,-0.08343262652282746,-0.1454847869898454,9.640519169949858,-0.6956189208571099,0.23935003847252218,-0.6046379110514015
2.825,0.052340350627141666,-0.03966972124837405,9.47474843640823,0.6163281069338259,-0.26474606765465286,-0.7648064992230382
2.83,0.043988520954574645,-0.3817874899736183,9.560629630339777,-0.06295368494558269,-0.8236908690900641,-0.7031877095949929
2.835,-0.19216183970522643,-0.002909346763839505,9.914666432724955,0.3587289507125282,-0.6353100585370612,0.3288492244733473
2.84,-0.30017258088253373,-0.22578848693396458,9.58125580027767,0.16969528280519391,0.4383029685469008,0.23619658273097124
2.845,-0.1055421099773354,0.2480360359291304,9.688397571854654,-0.2837873129852851,-0.27924455112929353,0.8013011755689979
2.85,0.20852378966620472,-0.06884793938259436,9.866221044237525,0.4361375207426787,0.133344263970788,-0.4764855138294365
2.855,-0.067717572604419,-0.08115185814607322,9.84062625288304,0.13128038442793652,0.40600268017867097,-0.020917345535424684
2.86,0.08276982730591662,0.13566309997602946,9.831455222303319,0.730943378743283,0.030373736564853152,-0.7714551133401567
2.865,-0.13926910383983934,0.302978747272647,9.555409861303884,-0.4028615487452522,0.2742259519491429,0.2260617312527575
2.87,-0.05368323514166043,0.13042653626918363,9.578156134318723,0.38020582459967805,0.17063070702223831,-0.5381819001237621
2.875,-0.22047103065918838,0.23570415986210147,9.610924685501086,-0.05224913084418918,0.06391198578739829,0.7272859514046126
2.88,-0.029411173479130987,0.5496320353848042,9.755796101989437,0.92049341579161,0.34145093971947227,-0.06826819629035176
2.8850000000000002,0.17077370701444292,-0.2804395143214961,9.6903550177993,0.45723792374071504,-0.459571741126484,-0.19008799577725752
2.89,-0.041247708003199546,0.035812205596580854,10.034253694888765,-0.11641071213044338,0.07339163038950057,0.26633323956455324
2.895,0.20829627753396474,0.2515576485556016,9.820039711326904,0.16420713609566073,0.4350276567666204,0.07961904887801982
2.9,-0.0016749606636046442,0.08924851988244209,9.467837944015775,-0.1692457970459074,-0.7201155957980618,0.3888188446038486
2.9050000000000002,0.12103750303956502,-0.2184974343068621,10.188191057115711,-1.2713400975219313,0.27551925947983025,0.27279976109156373
2.91,0.0819704890249926,0.224908469578358,9.931591654901926,-0.2486194473457502,-0.18288240922293858,-0.024509214638493444
2.915,-0.04057924125652956,-0.05474069020114075,9.762269877957536,-0.8021791135223516,-0.282570052454504,-0.3661839712243048
2.92,0.11917573119624188,0.10866877644447277,9.907587642825193,0.4265281045028579,0.19532519641491472,-0.2161009622974758
2.9250000000000003,-0.09417671934705826,-0.12207428887891113,9.663472168287363,0.6031797936343857,-0.038846589288144884,0.17670730489244676
2.93,-0.060933004578505784,0.03150666412035762,10.03385427593307,0.15378202389305778,0.2981604821806277,0.12000827784371068
2.935,0.08648160678094109,0.005429547178337572,9.828858148961437,0.02270215798884255,0.9624767317814388,0.34943266596474076
2.94,0.15615500051958808,0.3065771392151214,9.92615974722412,0.4406223585070494,0.35949757374116853,0.09456325124654681
2.945,-0.19754244638888604,-0.058927130209329985,9.84326681318622,0.509434169520591,-0.3278913465468258,-0.2997930720926974
2.95,0.0017916706342886682,0.35572559435202944,9.807933134125118,-0.19144117219380383,-0.6798945216270781,-0.5079559161170578
2.955,-0.1727537348067676,0.17203331779709788,9.624704444564525,0.07867148402911923,-0.07543261779275451,0.45847490008346903
2.96,-0.12066254532987492,-0.036008768479231956,10.024612034164377,-0.7715473390282929,-0.8662007321049205,-0.2339492855714628
2.965,0.3363135911329125,-0.10064217336823962,9.733880658352746,0.803144448488393,0.6411776061918062,0.3020082815413475
2.97,-0.03122661803903893,-0.2303717382793373,9.856482590416443,0.18789244800173813,-0.24969837105292883,0.7515575905595295
2.975,0.06442730995719134,0.0313042350804914,9.986853596019168,0.7552188258927351,0.9452624982970885,0.6363634006243977
2.98,0.3292239825864286,-0.32878534642107327,10.101258961503303,0.12010335417877675,0.8803172644373837,0.5763125330170177
2.985,0.19426610367903108,-0.29895553351609655,9.606591209185872,0.5053369123961324,0.45344806204282356,-0.7443630937364492
2.99,-0.08533511195478655,-0.20008136176793478,9.7016119563608,-0.1787011448045362,0.2520158025564838,-0.09405326686998523
2.995,0.033264219783955946,0.2196543697008817,9.786923522236458,0.6910910976951851,-0.730307917252155,-0.3390484304975208
3.0,-0.04701197959607425,0.053588958734220905,9.689370421622188,0.04241907865306558,-0.2342439233658553,0.07160779933080759
3.005,-0.23412119414656674,0.16423544232284817,10.065628810238884,-0.026173992655213817,0.020196240854886714,-0.019978721054824938
3.0100000000000002,-0.0811543998935567,0.07736322039605498,9.899998531228501,0.48045993870920906,0.5260233112291872,0.5949122859649084
3.015,0.1471152993322887,0.0284751658516937,9.654421811683315,0.024983701185183123,0.08237240759983933,0.01142971335488452
3.02,-0.07903612145264155,-0.24081997345128459,9.492944584480028,-0.49279559039374105,-0.8379664891895791,-0.6236993884381398
3.025,-0.07178032604674255,-0.04458080543572911,9.703593445235054,0.09052078607533387,-0.05557446297869194,-0.37037983097543103
3.0300000000000002,0.11548675369638378,-0.07455497321109976,9.838559340312903,-0.8745168862351271,-0.5557627797068017,0.17508233341121074
3.035,0.29303590093823345,0.23129210658876623,10.001900707629453,-0.23947524848892907,0.6007049605716517,-0.3049241595249635
3.04,0.13718374479778303,0.03627948911851644,9.878672582985654,-0.5343724810253365,0.42593150795696233,0.3331656454395
3.045,0.24501510108371108,-0.010728137062613214,9.758236359146196,0.6148260808083041,0.09880979678872082,-0.7151243571001302
3.0500000000000003,0.03460815500154445,-0.006274464672201461,9.927867022443225,0.30572652074549483,0.23549398808722471,0.6793194484985017
3.055,-0.05463324379325003,-0.07846851838586223,9.649261034317222,-0.037767676056479425,0.297568520834169,-0.15285313783113805
3.06,-0.11563045037647662,-0.016673768019247904,10.06617049513549,0.6099210353218518,0.6143351613652488,0.21871175232702378
3.065,0.13188865206881137,0.06044535438417457,9.446590403565331,0.39711382117219207,0.18890180845551147,-0.7575686511198751
3.0700000000000003,0.027803067849747676,0.06800741494298512,9.810206610399334,-0.14321334147601086,-0.20299412917737558,-1.439743893058806
3.075,0.10820424343080103,-0.251164113963371,9.655684353669953,-0.6084025640525634,0.1787901724574182,0.13090277230355013
3.08,0.0699754939566913,0.03241682314522576,9.88543656433492,-0.8301785059851485,0.39850970805085983,-0.8064672139426793
3.085,0.13087002962552355,-0.06328215778026662,10.068501971428743,-0.08795919520816754,-0.40909071876354836,0.34088922356176693
3.09,0.05396842134216895,0.2705400762446524,9.89146536387726,-0.002593735196117568,-0.06956347299171058,-0.31393856548004395
3.095,0.04931792647093249,0.020713266539739074,9.834000117794549,0.39467378918159834,-0.8524090414366341,0.3885855528625547
3.1,0.09584462208521524,0.05946827545158842,9.830396984429356,0.33803105684456586,-0.13076494869196792,0.24367438605708405
3.105,-0.030654667502698147,-0.10919965233775648,9.967391894851378,-0.565415797271875,0.14676900102055515,0.7135551003184348
3.11,-0.18537053687098,-0.20225886273965257,9.73608411831732,0.5345697566908886,-0.9690113079369277,1.1698975808373842
3.115,0.0828927334500657,-0.06490010604082914,9.580636056803757,-0.7224921531938725,0.3090703439060888,-0.06425990292708711
3.12,-0.016367277270043386,0.0789190929447247,9.763462112065707,-0.06303183112145078,0.3373698425991103,0.1146426558603225
3.125,0.1022560651255947,0.1497535174978307,9.994892175860123,0.8737585888743988,0.46480563918354595,-0.9921261196860054
3.13,-0.027444283477527698,-0.5085222637513457,9.52944676846509,-0.020911264802254775,-0.5186040166008452,-0.11293902390333853
3.1350000000000002,0.11930523507612463,0.1528166533249016,9.669826108752316,-0.1910249282603792,-0.9252126475361346,-0.04449067492915206
3.14,0.14574110627601972,-0.0757258109613979,10.04859706584913,0.72706343197994,0.5409965326568666,-0.039977065788460296
3.145,-0.17451422191069346,-0.026692413988646625,10.025391792043127,0.5711541078912403,0.10738025381598207,-0.07965419780573069
3.15,-0.023258552196241077,-0.34759866698040126,10.113450901829994,-0.4606948698452942,0.13652817159226147,0.8073435590449974
3.1550000000000002,0.3677492156148082,0.2380192421757096,9.839013748773557,-0.19005715706646975,0.2249134221399248,-0.3988149877246354
3.16,0.2695106149729436,0.1321990058774626,9.419391317715519,-0.6694681649020393,0.3772955399798334,0.18235760444123641
3.165,0.22143254552081493,0.24567881360570487,9.481523923551647,0.47556955435688564,-0.22762793870355238,1.1787778983021426
3.17,0.2738072256993329,0.10414077871714505,9.528150799235558,0.5165493614479979,-0.06459619275762725,-1.0496432934932711
3.1750000000000003,-0.16892993068041057,-0.3402342850335734,9.922452646755547,0.2695180094752707,0.5305935401827514,0.44201064912961247
3.18,-0.08133806063799977,0.10501570275188638,9.499599931144964,0.20264170009543803,-0.09266864316512641,0.21158158384663645
3.185,0.2323479556013689,0.07326006446315671,9.54059727588684,-0.4139485163084628,0.49321290514714994,0.8088781038018893
3.19,0.11125879214159727,-0.016785653329339834,9.968953994847098,-0.050285390307584985,0.18288871778592936,-0.07298918231421074
3.1950000000000003,-0.15847843988492227,0.1288646525965523,10.106267965136524,-0.27103390799317134,0.59421432081579,0.31045211270804635
3.2,-0.159121696237059,-0.10374778107658328,9.591428988835272,0.11919980962258299,-0.08483775810625252,0.7984217763898013
3.205,-0.08107782806581544,0.014564058992701282,9.998517666363195,-0.33256939471221686,-0.4107860443805818,-0.1998889051280217
3.21,-0.10004669248367389,0.0018087045443423572,10.05208179831427,-0.4303530445149099,0.3292687307823545,-0.05753136795049742
3.215,-0.06889281799610807,-0.14066962801989888,9.93435653833551,0.42957983465325944,1.1310353881847701,0.4035981098347998
3.22,-0.09970715722410528,0.07833249793729975,9.555971267527688,-0.21659545618444817,-0.553663450732289,-0.5103688440266473
3.225,0.051961709623714485,0.1534995369716863,10.094538604329317,-0.07702909795488153,-0.31461964095691386,0.3142690234532204
3.23,-0.41178084530589915,0.09791387015313802,9.748911584226713,-0.04953871092872983,0.05443667050400204,0.11979115576577525
3.235,-0.2054381292812129,-0.006503560535532381,9.999945827802657,0.32405470949686543,0.4639335466262765,0.2855940569486226
3.24,-0.47195428708907966,0.3681819606869579,9.470460511157437,-0.7792821337730941,-0.5297041141624653,-0.3510651848739458
3.245,0.14357007752392895,0.20362371680436744,10.05821236938993,-0.7872552995913459,-0.18742070561220592,0.28828222021015587
3.25,-0.026773528331800984,-0.057480194709877,9.702447729797676,-0.051770249647290156,0.2785231093144227,0.34385298823227783
3.255,0.0069085416750882134,-0.2536389996956172,9.761659092916254,0.15761735866811827,0.057100551487328836,-0.027550706038986354
3.2600000000000002,-0.1954274724145094,0.25339188416382025,9.785454362169045,0.4406196118398775,0.8128161514730983,0.5399260598118463
3.265,-0.3539022101924628,-0.09637968481968762,9.915417963329912,0.042036961231082096,0.5002208082936502,-0.04222043840927389
3.27,0.30426631276055977,0.1435513466098127,10.156516598576474,-0.18057293927098733,-0.12158485645289736,0.00971195249672505
3.275,-0.0006570911862792847,-0.12707809014217625,9.839645241374821,-0.35119427621335236,-0.26012683220097343,0.5606888558593536
3.2800000000000002,0.07816630769748983,0.2113659832208752,10.05381816996464,0.566607717750483,-0.36199456727824075,-0.4528411070760989
3.285,0.12491225622017094,-0.17310140229140722,9.883183849823192,-0.08197729472106124,0.6604327610204981,0.7512048074456757
3.29,0.1452277673351478,0.14869159928772577,10.197620292200504,-0.06672671013499687,-0.5445247031991963,0.28355880009915424
3.295,0.1443725863162587,-0.017662339765665135,9.841709261782125,0.6731115728968983,-0.10135837481228853,-0.21472889435547157
3.3000000000000003,-0.018698362650870125,0.023252461273417395,9.799965369401274,0.39387185355313575,0.44301146780969614,1.2875619431303507
3.305,0.013000442950588963,-0.2443646842714614,9.546300983889134,0.8460643227104364,0.9496001926511122,0.3936844955967647
3.31,-0.23985785731978926,-0.4942663410444563,9.8903414261776,0.07182271652617203,0.43284426988425184,-0.7968584938423074
3.315,-0.04954571693939834,0.008001860286393651,9.938075110698549,0.2597710217966028,-0.04222819126304406,0.5034921491512064
3.3200000000000003,0.1290008375140743,0.4209948747610679,9.924975788807746,-0.05601186757448831,-0.3118956130102943,0.6494820458403813
3.325,0.08266225815892053,-0.15421103164556874,9.793070253472452,0.2772877330972082,-0.07518625419267835,0.09806518231546976
3.33,-0.3235662988792898,0.14308465879494928,9.687854918442005,-0.0781206793439202,0.13521463841297943,0.10573141251080481
3.335,-0.13483475307060125,-0.07147591114682683,9.273226182275714,-0.5429315914929699,0.028818970960464152,-0.16174192258789855
3.34,0.15862164581831872,0.10117225421811371,9.891000506267687,0.9872434050953061,-0.23443102157651372,1.405964509449611
3.345,-0.2737333965517603,-0.43114901118614707,10.032879929237392,-0.3861347703387551,0.40306164520401183,-0.5524112441105746
3.35,-0.39178087568811315,0.026551917309236908,9.62975384154543,-0.04291550780929502,-0.3533321284269923,0.664149922095128
3.355,-0.32333610747218766,0.008098917939163744,9.578484619323461,0.3906778876293783,-0.2544742871252135,-0.4025909117901568
3.36,-0.21581931961251338,0.16518063171136957,9.82809468348485,0.47212351624531684,-1.589406923201234,0.3514305481251522
3.365,-0.29533451583324316,-0.19546840285087638,10.207310670862121,0.2323968686789532,-0.9983274466275825,0.3230164082800653
3.37,-0.0003376746077401149,-0.0034133503482272724,9.902968539710756,0.19346118715349497,-0.35717479685265413,-0.540428439772109
3.375,0.032858119219663126,-0.06718218944428375,9.830538680864697,0.3746853764936009,-0.39429132355658164,-0.11036904028741605
3.38,0.205392690123321,-0.17790463215748525,9.548015624682414,-0.3516850116429161,-0.5675878581276712,0.28746294231760133
3.3850000000000002,-0.020145241246387165,0.36317711456882357,9.178652956767166,-0.36528447782177903,0.19390656305509596,-0.16367618204602316
3.39,0.2853360540914007,0.03913034331363237,10.070189243736861,-0.6508447062330966,-0.11290784453890454,-0.4646991517585111
3.395,-0.034986061854205705,0.14344635697035554,9.940454504482153,-0.4183144839636719,-0.4377992842187633,-0.04161133439813367
3.4,-0.284821722706537,-0.21446458823643166,9.59764171293216,0.04876504575430249,-0.18738505580868905,0.1999937009348875
3.4050000000000002,0.060558237761664524,-0.25347320402066575,9.776474853801314,0.6104922165508088,0.30930857419641694,-1.2041943533921713
3.41,-0.01158841434942424,0.06487042885749343,9.958818037209866,0.18135726046665931,-0.5293754059173478,-0.6874770779958419
3.415,-0.09752739454560833,-0.0674699261936486,9.706174810207502,-0.6677889845551622,0.5492665815079437,-0.9504242604618117
3.42,0.08599987491685974,0.18511426234858322,9.937125551954615,-0.6060633741145772,-0.8253301494765687,-0.20051192681657537
3.4250000000000003,-0.132314377653563,0.12630743058894697,9.83613258745688,0.7323254021036961,0.32313986632038955,-0.48954490569197145
3.43,0.3037918058304356,-0.10072331912914101,9.601397461156585,-0.3058528547455727,-0.06633130653628352,0.5487109306288208
3.435,-0.14482223166374333,-0.05974062870882263,9.648267300839384,0.40953918969022357,0.10663762744754565,0.3062367703915039
3.44,-0.15587340882882267,-0.04534423827341861,9.948522738681048,0.6029837506636009,-0.4858639070713363,0.12789645129246086
3.4450000000000003,-0.06251868008850435,-0.3651433897391404,9.721909117156398,0.10347015006006252,-0.7798509306084059,0.012235407168264704
3.45,0.11198829816020182,0.04646411317645274,9.711301345215347,0.9157720093048541,0.2676981565123368,-0.5837997482873188
3.455,0.2821663114525849,0.08036862336006007,9.695653762905007,-0.26584521031488817,-1.0387210109577598,0.5348582355820463
3.46,0.04348158755729918,0.1330735766126001,9.568945991119127,-0.1814490911388985,-0.10972461128713404,-0.12194296006000428
3.465,0.08602909554079519,-0.4053985052194613,9.4353437403275,0.061557851410940834,0.04820850317479163,-0.03273924117913567
3.47,0.038053165886974355,-0.02997261675710974,9.811804939077756,-0.19385321838021677,0.6497200051489512,0.16947629178145968
3.475,0.11390994702421522,-0.10911096446381906,9.888509020125154,0.26924888518988266,-0.015176333019645761,-0.8406723272451165
3.48,-0.03505187634824256,-0.040344020417067444,9.994717945634111,0.231304753616616,-0.05457662967919297,0.4774193793269763
3.485,-0.22841649020740157,0.15619037795870236,9.610713715681724,0.08788676952928426,0.03761544027374239,-0.3506790781628208
3.49,-0.026363965064879646,0.40180786428210075,9.419110454573316,-0.23516053655622343,-0.2622596672989246,0.22395004967272902
3.495,-0.09980082476209051,0.06517311901890828,9.74543502208569,0.3458399906350191,0.10057370791493504,-0.30412604021833667
3.5,-0.13149101189833873,-0.3665213727567392,9.82143529960867,0.659610344263249,-0.2988655489970931,-0.2785178620194586
3.505,0.009773948617873195,0.06073637029188703,9.640164132636421,-0.9390793327223166,-0.23113605929707381,-0.1789365125835756
3.5100000000000002,0.0650785181134041,0.04700659834623558,9.869613519878381,0.8852956248690639,-0.3884232803483414,-0.06870465308896878
3.515,0.09732987084138141,0.44828207037010454,9.292594033276725,-0.5533769185305063,0.045047068507559816,0.6811112795157572
3.52,-0.4993915816450012,-0.24079718684617069,9.64149712633171,0.18407582035232165,-0.1304983619696624,-0.05150031949165083
3.525,0.08146467686537348,0.009950866119561572,9.871604581704807,0.8763373499405324,-0.29224753379408835,0.6813560663042998
3.5300000000000002,0.13149814792622516,-0.04712151573430676,10.151808350054194,0.18100539542205712,0.07173638703998128,0.10125561960757506
3.535,0.31004233823992544,0.3189752849086618,9.908298181858452,-0.9892819708532108,-0.12775561685366263,0.5280468842933753
3.54,-0.20249858546609667,-0.2710525837976789,10.004310325997343,-0.11082698231995827,0.5543990266988238,-0.4748000026055286
3.545,0.062383718851749426,-0.03616523546369784,10.397029056869902,0.28580810466137296,-0.6405882257883349,0.4871512247299124
3.5500000000000003,0.23394994320708548,-0.038695828534431265,9.643603961415971,0.38538908038115893,-0.5950720689911969,-0.8644677280461526
3.555,0.14883615857979238,0.13574621803603024,10.10044149855197,-0.5252377354241423,-0.9274054987685544,-0.5800629823787097
3.56,-0.002871343656271789,-0.22618793868813541,9.885591816477822,0.632229962292053,-0.20307463110324733,-0.5174160346721886
3.565,-0.3622357027024392,-0.4125117392172489,9.786718989372675,0.3380070676232241,0.16996972552987774,-0.08778111854907165
3.5700000000000003,-0.0592795305561625,0.15575134309669403,9.902391023528725,0.8222167456658909,-0.09654238965595177,-0.3493997907307224
3.575,0.21928000033148162,0.14251646215179845,9.847867153093993,0.6313550741643118,0.3870919928145816,-0.6100636744313622
3.58,-0.16993259519007856,-0.21859078483276342,9.893762020786134,0.2151501922220484,-0.03654644006979518,-0.5089717887724857
3.585,0.08093647437933535,-0.05359940267480147,9.735940057665845,-0.028964489781796977,0.4498037603691231,0.07649055153721142
3.59,0.10074372696997871,0.03229900040479561,9.651212079940422,-0.13388020547194676,-0.1771817562782441,-0.5828306688900102
3.595,0.09670531563410806,-0.10386269070930812,9.94285186759834,-0.3776985759842122,-0.4088596337244097,0.6559475144016856
3.6,0.015915194893990698,0.32230647320914174,9.717188535916172,-0.1953874356341767,0.019231827161097618,-0.22507028481104815
3.605,0.09046055159925549,-0.3827460202618771,9.950068950464457,0.5929584113505001,0.7416953794353376,0.5621737607300216
3.61,-0.06524186456423199,-0.0010146220090096248,9.704448404350833,-0.5316859254509898,-0.049561045235197825,0.3019528745320595
3.615,-0.21959155233601574,-0.1370776477554738,10.011886677857786,0.0613681682536891,-1.126656401297769,0.4979664847290216
3.62,-0.06421114220282866,-0.23031852099404843,9.85190554702033,0.5415427385769815,-0.23232814821037265,-0.23974494728725082
3.625,-0.132909700212459,0.17993376347213663,10.083150221039045,-0.5248811022852226,0.7020330750666016,-0.41527550055220613
3.63,0.0710840250256146,-0.2256938622346151,9.798994447144304,-0.6873276720535428,-1.0251820118991783,0.3553615737621021
3.6350000000000002,0.36039839205529955,-0.24866430451790392,9.896908448899252,-0.521895111175004,-0.0601992754283862,-0.3134347898362236
3.64,0.26205698791133536,-0.06114499616958211,9.605814530870255,0.39314716736023075,-0.2461973983650168,-0.6070829020682136
3.645,0.17356292757613245,0.0668980855660207,10.089915703699397,0.6172512114825655,0.6774446864925181,-0.0324022702786378
3.65,0.2800515003347347,0.21832349289670083,9.854761443705899,-0.0692361541679328,0.755975147818327,0.04306470186244819
3.6550000000000002,0.07315794768612542,0.010340199140729598,9.62319083843273,0.4681199160914617,-0.6199164933053409,-0.36253071868552506
3.66,-0.08093395564663505,0.19086251774499827,9.521164214643115,-0.21117301647041806,-0.16049609135585513,-0.5678121815614865
3.665,0.3409542795533895,-0.07549120891719781,10.14964549853596,0.15675505137306234,0.4248984084589866,0.08119360928488606
3.67,0.12231470940354172,0.14080792318544075,9.864559169890592,-0.3056210224732883,-0.17933860142368757,-0.09623103986650285
3.6750000000000003,-0.16020472782009174,0.16069954253736918,9.99107144341276,-0.15897340548042474,0.08743813856926974,-0.32005439989025186
3.68,-0.005490348277629535,0.0708236368625721,9.724943443008634,0.23279472783247523,-0.8598160557152801,-1.0349654260424634
3.685,-0.2686698858383418,-0.03807667298868716,9.608520554336737,0.7259691564003942,-1.257105845995636,-0.4569685774020371
3.69,0.18525942883816177,0.13638979841159168,10.01101952058914,1.0489869200385633,0.9706686602205172,0.5711555104049673
3.6950000000000003,0.11074221662940403,0.04951438272613805,9.846038093204989,-0.0654875919480401,-0.38694854713199717,0.2741197066907762
3.7,0.20465716312821605,-0.4659611279161346,9.745580469354678,-0.14555368343310784,-0.17214199256553817,0.4622658123855152
3.705,-0.10349574835500974,-0.44889982328259403,9.962304067212855,0.12486246350144443,0.32414353718790373,-0.35279792922702746
3.71,-0.11795769750201811,-0.08068387435556137,9.565670789752152,-0.4928029650842367,-0.49463340052384686,0.46996276049648567
3.715,0.044236677480777434,0.030264672423888042,9.974575029798546,-0.13408057790213168,-0.44237828221871045,0.08543812492262778
3.72,0.19628169702859632,-0.0029606897405254355,9.415657683574496,0.3897610388650955,0.36316521341866675,-0.33725487604171966
3.725,-0.11051775075628477,-0.0490587865197569,9.967009303356816,0.18539492585258693,-0.814201294847127,0.10799404144676956
3.73,0.04486138422050756,0.0465160526048322,9.607296173601547,-0.3754739030664347,0.6455914448405635,0.6802282095500358
3.735,0.021352125942971457,0.0640267688021707,9.91277026744836,-0.4310414820048471,-0.49022565309466787,-0.8759361450223158
3.74,0.07814703162957265,-0.006699439938334806,9.916642918573856,-0.6255917715367536,-0.67095628970502,-0.3065004463770577
3.745,-0.06318525573077859,-0.13064992719544183,10.141389866644749,-0.27772863880666143,-1.0372767470834725,-0.8961200037601128
3.75,0.17699987878398868,-0.32159639443067545,9.606117425923735,-0.14103526658731835,0.12138317552433156,-0.26085338197599417
3.755,0.016873932394974294,-0.18489015235560793,10.08787132684571,-0.15285297430586722,0.5165445921599482,0.6924022901598578
3.7600000000000002,-0.10701701846536449,-0.1955892178942182,9.639550122828267,0.18344108791096636,0.02770163974544723,0.16477113052686937
3.765,-0.05049392249031573,-0.35018801111069053,9.654581748901558,0.13402155877707916,0.6193302994580456,-0.11047202889226897
3.77,-0.07906057139875367,0.18701092870300112,9.954974013858001,0.1727647866186384,-0.39968172589665185,0.6046294000062186
3.775,0.18480851525769001,-0.1655986318267462,9.673825844875582,0.037264253311230254,-0.13483176246761605,0.0025088557699592326
3.7800000000000002,-0.03749392067406209,0.28269221729672994,10.160794652299636,0.5230338366439162,-0.7294960760079809,0.7511377254323122
3.785,-0.22655391523215568,-0.43906067180342156,10.078208718982548,0.1724406870618677,-0.5775237812613846,0.5160517126700745
3.79,-0.1569817552873709,0.0899954113912305,9.620263012113886,-0.03200843673670355,-0.18053343374661193,0.08566416938863539
3.795,-0.16522650327140667,0.07199301526446732,9.383939585240187,0.36543926852438446,0.852378756423526,0.3117096703891749
3.8000000000000003,-0.2292727630311048,0.011796380802719079,9.615636449457762,-0.582430107012615,-0.6583899410935892,0.1866142749672931
3.805,0.16421132645088732,-0.15747033475281505,9.836400799939248,-0.26852592309046464,0.27936234732842724,0.10397050752162247
3.81,0.0714154697254223,-0.07058759231524109,9.58164203875191,-0.1685189296402488,0.7163947667281212,-0.3134385163597
3.815,0.41770915450529533,0.03953644729975146,9.348650384053267,0.10936959630434355,0.07837908154135849,0.7398131243484174
3.8200000000000003,-0.24725738732872193,0.07430247567868667,9.902820988729138,-0.5454812685163879,0.4206238342747273,-0.04689463862114179
3.825,-0.18002263360609394,0.0770309256343688,9.940573406674696,1.2009751618152857,0.33288779905551497,0.03968251858774182
3.83,-0.22634834874686602,0.14353551285656538,10.082015332276963,0.12495922848675821,0.609644983992614,-0.7742580501291838
3.835,-0.024791492790853985,-0.4663492547966402,9.87239685848647,0.08225410201780546,0.37172565799899043,0.22882005204471856
3.84,-0.22706973606832515,-0.14014035571823946,9.837566328177447,-0.4381043790554028,-0.1801049229594265,-0.21121312475918977
3.845,-0.046382021638293885,0.024783385577539084,9.727076720856571,1.2384535380103503,-0.5277668713011028,0.48850442614022616
3.85,-0.347643290281124,-0.03237077508449603,9.804436936418561,-0.7060712308375411,-0.6751514494201658,-0.5178031921221034
3.855,-0.1336926803892699,0.04150579328502188,10.106545413569357,0.12339237542693782,0.068031771856662,0.05682605583627421
3.86,0.3525134199883765,-0.022171692787253568,10.087163505392068,-0.3559051635977125,-0.5656602920735638,0.009568906045881587
3.865,0.3235266579245186,0.023006523664843154,9.997509408707058,0.4850685048941545,0.34519903922864154,0.09303160546700756
3.87,-0.17608725074750428,-0.34876482761827554,9.9099427535654,0.14577889941582547,-0.13033471021159518,-0.13247382260722892
3.875,0.07487915870518484,0.018023445138547894,9.486868542513053,0.3764509762540848,0.15859297499791736,0.28796097427412404
3.88,0.04453358221040469,-0.1450726268070691,9.803430802520413,-0.47098437983357716,-0.5697800809956932,-0.011756838640433885
3.8850000000000002,-0.29236067717027936,0.00035635048892994483,9.928991678438832,-0.32033950290668184,0.07307214507473882,0.22589041256830183
3.89,0.11939761657710467,0.10505870363427737,9.809361232724802,-0.1487759597635998,-0.2939591049217014,0.5056475383766198
3.895,0.08359496106058317,-0.039083268777937455,9.663979043552803,0.0781122326801092,-0.2374164854507238,-0.10108623191251426
3.9,0.07968223100155189,-0.030896421611703667,9.81112023229421,0.31404169029635365,-0.3049669166896771,-0.6312357544814249
3.9050000000000002,0.01495606447431672,0.22878642265323093,9.65774783058518,0.11514245285692923,0.3000695718433452,-0.7290645053174479
3.91,0.07431141289030478,-0.14916228579570034,9.388564754039619,1.0123089154185065,0.25312730762069535,-0.24682822544421543
3.915,-0.1226584729019472,-0.034600409704354726,9.558868816644864,-0.1599136978260307,-0.7126197756051256,0.5594380282360477
3.92,0.23140239430199094,0.20768544290701374,9.748564843985406,0.11089693952691398,0.09311908897323393,-0.38214975397595696
3.9250000000000003,0.1943444608039983,-0.11133635001703385,9.69859160438951,-0.5350371084437712,0.45687531664651654,-0.3925588297105324
3.93,-0.3154721489415381,-0.14389366632156855,9.721521678485557,-0.12517911264903414,1.5927037398885584,0.49905543546679504
3.935,-0.050422540576363466,0.16059942542960998,10.09159588581116,-0.6613432881431314,-0.7631142551736428,0.30528996430696015
3.94,0.10092101961057963,0.1606004796957172,9.614155450239016,0.1410645066840446,-0.5213836081306028,0.3958858840484046
3.9450000000000003,0.18535138511025628,-0.06397909222973806,9.639681176897994,-0.7747545375705149,-0.33291320086553633,-0.07525205128102838
3.95,0.16001883475259088,0.2461322880397618,9.61879258496688,0.615540377554809,-0.669460569630715,-0.1308468625545727
3.955,-0.1110957840653978,-0.029215042701476113,10.003872870259785,-0.28753091657586854,0.30040187765874404,-1.5001694654881506
3.96,-0.10316798611606402,0.15265717771898252,9.790923697373673,-0.728571832132488,-0.06177872309490234,0.2766366892059707
3.9650000000000003,0.02557013023936361,-0.19751575064469118,9.747509172253828,-0.3564432204039644,0.0964443494081142,1.1131390005369166
3.97,0.1502821727953897,0.19287460125645842,9.737285310605458,0.3335195790546744,-0.17113885560321324,-0.4436288536872471
3.975,-0.36383871048383726,-0.343849620087322,10.178319715687067,-0.6446492889120553,0.07617623972707736,0.21079819437273684
3.98,0.03289300552056127,-0.26713509574052985,9.773898576890087,-0.052720994951433627,0.8266158804010106,0.0922043710286687
3.985,0.06957147910343753,-0.14468888278742018,9.814260232907895,0.533999793644164,0.5863025255811255,-0.21788183950713072
3.99,-0.10020943493633755,-0.15533328838634852,9.725284019699036,0.09992552417952122,-0.34142986454940805,0.4378291219542981
3.995,-0.08686275915817869,0.17486826467915978,9.707253948768665,0.018687573216265824,-0.38236505956404937,0.20286989886171058
4.0,0.27562779198647774,-0.02871732843851197,9.707391835350851,0.4086884464525368,-0.36153747408414466,0.03571053349966885
4.005,-0.08743715122987404,0.08763687991279204,9.718022060842797,1.1344610670735042,0.04575586031841525,0.21690475590776276
4.01,0.13683694694806034,0.05451426253567413,9.911677156092628,-0.2947725043585971,1.1812798181919308,0.6879622303942753
4.015,-0.31927469197409164,0.03785286830281088,10.137986926674618,0.5616238597757863,-0.14330364864030182,0.6342449978304284
4.0200000000000005,0.17924498168209146,0.29140704035277726,10.018785869111008,-0.05883682565210483,-0.21123278856005284,0.4767318541549904
4.025,-0.07150188554000164,0.0019459147345104477,9.520143368002008,-1.214856158609255,-0.3279591900074303,0.37203836890897013
4.03,0.20978872147794686,0.10537415053780251,10.020761612642083,-0.35191558124918054,0.48755205472994084,0.06998070682688458
4.035,-0.03511208816884285,-0.04699488512691304,9.754780150829552,0.7661991393785477,0.2281070610249556,-0.2073828132699702
4.04,-0.2165526107059781,-0.13226601478537744,9.996060129936629,-0.8608663502739068,0.4308136010506649,0.4142105567134587
4.045,0.4227711586888349,0.4000178921087395,9.68354120707778,-0.8094464266913555,-0.30517053951633955,0.36241379006359253
4.05,-0.025502977961027087,-0.18206592307218383,9.75451662230715,-0.3696438418146658,0.2645510542502399,-0.36568627796202513
4.055,-0.14367755291092238,-0.3793601925482655,9.902524275718996,0.6600629012067524,0.08722229757061023,0.5958963541329222
4.0600000000000005,-0.42646708387780885,0.1384354823405313,10.151156766233388,-0.0013953536365415313,0.07754515920263487,-0.6484762473756016
4.065,-0.4568916712799287,0.3094253981929754,9.918646392969816,-0.6639202344366937,-0.35005783240762056,0.9473230001803501
4.07,-0.16112644644957796,0.05233352898762379,9.729914233726866,0.7552726567716632,-0.10430259166775455,-0.3632947086936765
4.075,0.09156980760526534,-0.25157902814648053,9.446676957722138,0.1626921825721222,-0.29687684553810506,0.03513254769587313
4.08,-0.030776623564217682,-0.05615822504289905,9.825427671433363,-0.2890647598264538,1.1754467796413082,0.37298297462024604
4.085,0.2963214688460479,-0.06954603452424228,10.021513144172982,0.019197765122867194,0.22496491692453918,-0.30616042301675683
4.09,0.19324925240653035,0.1302952852202277,9.993759259739035,0.5250065856696794,-0.12981528185656824,-0.2137888799181133
4.095,-0.2572299037078684,-0.03211963615813245,9.961446377223547,-0.8629950953712335,0.5574183947198951,0.6718134171670779
4.1,-0.0866091907948066,-0.12867165360119323,9.72667372423484,0.3039851296343717,-0.27725239930366596,0.18144827846649167
4.105,0.17891328037012993,0.09855039118315065,9.908507350251455,-0.390582541323214,-0.268236251098135,0.39592635453575203
4.11,-0.2990616457701604,-0.011031725548882784,9.653817805829643,0.021504350851035234,0.1101142656046114,-0.18871773745978657
4.115,-0.10392047087326434,0.2163386606218207,9.827745646400675,0.05521592828570251,1.0067978828589434,0.2444442807304015
4.12,0.30216165235805725,0.2300992180540179,9.717207447983998,0.29410497313158734,-0.5849411239068458,0.05099307633806528
4.125,-0.25242388997909937,-0.3219914110041605,9.840094108652679,-0.5772235225538348,0.8414019781967691,0.06371280974977223
4.13,-0.3911788455399412,-0.2973457940531148,9.449668336517036,-0.09224894677910375,-0.3245465005900093,0.38482230536544426
4.135,-0.30972960516418063,0.13439697704038214,9.592407796669615,0.19071031832529892,-0.33010204006162,-0.22956791394779158
4.14,0.16926199885420562,0.06660033624260997,9.810995475901574,0.4165241347528403,-0.8967077192278375,0.10563028086185748
4.1450000000000005,0.12063948527218116,-0.14865277215061573,10.178918023097689,0.8833942652020167,0.5548034713174287,-0.3474369542374728
4.15,-0.05686403343411076,0.17235420982167632,10.052370901599211,-0.7651151278838232,-0.0930573181686143,0.7038755804906273
4.155,0.05826384770687654,-0.02564204834229053,10.066836672316306,0.40213720819467774,0.17791153222123965,0.12535456097173012
4.16,0.21767827268043077,0.0976352639339967,9.718564771785616,0.6857932920442387,0.0036539981879857323,-0.26412523645963265
4.165,0.15763283575592912,-0.007360488776970719,9.696751332957144,-0.11357512612227265,0.718147766810911,0.0448076440504252
4.17,0.1293831936869352,-0.06399315203091593,9.95667508945281,-0.41465852064001696,-0.5087290841820596,-0.08125292079816429
4.175,-0.05475490047728361,0.11052734756811769,9.838375256037375,0.27678730790277256,0.5021363467131371,-0.2994957852527652
4.18,0.14080259813194326,0.20125716695452078,9.931196851473503,0.33916468407338657,0.6033856135014395,0.6294591349663153
4.1850000000000005,-0.043588034540572605,0.037636850425158894,10.235718526839008,-0.3466550415550227,-0.2433397423129501,-0.23394002723246113
4.19,-0.19724312476068379,-0.11013952570028017,9.641625153316289,0.382191688505921,-0.06337984884602825,-0.061590469071006855
4.195,-0.08648060959210524,-0.32247182337578284,9.806244558566332,0.022838893543302777,-0.2578469108763836,0.5777011517822618
4.2,0.3891970334615705,-0.2393362680459301,9.93156170412449,0.32490552420835955,0.07696438761875041,-0.22335497948787644
4.205,-0.0973348663727643,-0.02858756163974805,10.253744322308997,0.02128877906624189,0.0470807355938772,-0.03472050439041093
4.21,-0.10244137127286138,-0.3011812999963457,10.248686113663261,0.19879012421160475,0.14384618146353628,-0.7341626639281004
4.215,0.2939449041772389,-0.3065468255575331,10.093854023895984,0.4312525032045372,0.7494091302728376,0.5113750623440341
4.22,0.28868838830787874,0.14620321689800891,10.141706536454137,0.7096647746869121,-0.873172968212092,-0.2666294713474028
4.225,-0.1475740845896706,-0.06274568567962747,9.740734139270444,0.1235257203841054,0.054902720744221034,0.1865619726660562
4.23,0.17547360987689029,0.32325539653076363,9.966506139408487,-0.38718267013743407,0.42530823761851905,-0.026303595980168046
4.235,-0.007961203710734537,-0.2212772214913412,9.83390669813581,-0.1542350069852041,0.20625281856795744,0.05823251009417151
4.24,-0.2308945564379271,-0.11192558501423229,9.886911396094424,0.09426813531138661,0.018111511700337504,0.388375971318359
4.245,-0.21086189441206407,0.12648261210536668,9.686479533472665,-0.3173239618258303,-0.21542653844320572,-0.3274272243460978
4.25,0.02058008350402587,0.3631417356041481,9.63473024769542,0.4395607123048977,0.18363334966925393,0.3137447152754132
4.255,0.0980804357719433,0.008608945273325924,9.955103312452511,-0.03532364986531929,-0.2019724231766733,-0.06555297053334633
4.26,0.1980877837387667,-0.07535266287705307,9.692543521257948,0.7176595495380887,-0.6282706996089924,-0.3341149419880476
4.265,-0.13266831472074245,0.06498061443515178,9.646419325059334,0.18204398892539977,0.010976892927602969,-0.5029850826558104
4.2700000000000005,0.12421835047903634,-0.13615904978727875,10.098416216941159,-0.3990506964951689,-0.0983388547174465,-0.17665880700385841
4.275,-0.012841811176568041,-0.03686668420881824,9.954365513652903,-0.03963038721477345,0.027785171957988793,0.0748264741405782
4.28,-0.03697282479646969,-0.02225939538143189,9.669627477293082,-0.5838737904551266,-1.1245346174273998,-0.7397343426434412
4.285,-0.17989388118658745,-0.048004078524948784,9.899454418943337,-0.2626671344110664,0.0488695913882772,0.34758588383529054
4.29,-0.33918701268172907,0.1791964583689292,10.10881902850393,0.05759301802190829,0.12412840401032223,0.20054251568904224
4.295,-0.2650631309729375,-0.10848949216299866,9.817793104680751,-0.047999430690791815,-0.6097665884952184,0.525951151770375
4.3,0.05641986800535932,0.00264642411435417,9.676216644925375,-0.6939869276362481,-0.19932520808230056,-0.17506472507895857
4.305,-0.13967171158194808,-0.006782456166010606,9.628777600726956,0.15444249426024384,0.5147189796158624,-0.13874407572725855
4.3100000000000005,0.349534754774822,-0.31504220006311645,9.93547081981173,-0.4657925318716887,0.9752804850729152,-0.2685181768917201
4.315,0.1724912844137274,0.039183630783510705,9.967019042515798,-0.6475175991623668,0.6586752835806258,-0.31268114183436513
4.32,-0.34250193117659766,-0.04157385769754615,9.584232237205319,-0.653418854240279,0.02313681297948226,-0.9921866356920259
4.325,0.15253045413771849,0.17258790223536974,10.020857191585046,0.1015779150654554,-0.19657748738422692,0.27576393739258404
4.33,-0.2168223639039503,0.061948939951134464,9.676065835211988,0.2483869775787748,-0.6100712155165515,0.16936542060989374
4.335,-0.040620736735274374,-0.0605782543727383,9.98972351305345,0.41170686718311944,-0.16374888283732372,-0.4681508900790849
4.34,-0.16321608911141308,0.004334804048383417,10.035767069796439,0.3995886551391029,0.736212093356705,1.4238184887009864
4.345,-0.10125209449534772,-0.23721557064265905,9.475394157601473,-0.4013280002340313,-0.3285432224907955,0.40812882031252284
4.3500000000000005,0.028219815607364803,0.23619542665822824,10.15725969364803,-0.01240633142176485,0.5494016363925505,-0.2813472722560213
4.355,-0.06610991913853663,-0.09339228508178009,9.433848278898186,-0.5242317376236381,0.29281312068136967,-0.018128247735364627
4.36,0.16767891644563082,-0.12394671497107489,9.885506911738135,-0.27946589891272533,0.6402904163832784,-0.6836115312296028
4.365,0.04444637759141469,-0.19669110033848128,9.9102542374903,0.7321723034993126,0.3340221224248434,-0.0281990390803422
4.37,-0.21334175289719154,-0.06684731639697979,9.66431343239475,0.6226083676004185,-0.04467485284617325,-0.636420830279617
4.375,0.0365184063333444,0.010377957167036366,9.546453737271504,0.5993126918339504,-0.0216502386994878,-0.348455541488424
4.38,-0.05679902568320016,-0.19927525807961408,9.713286770959657,0.24484369001652928,-0.18913327415769596,-0.5938611830556696
4.385,-0.10319938476351875,0.053036933144329924,9.78659845970812,-0.16344818282340623,0.11644947418929714,-1.0275649996834726
4.39,-0.012770195220068281,0.03875576304816587,9.770280339398637,-0.04157241885173737,-0.6321995400972265,-0.20478024598080377
4.3950000000000005,0.19636133562768354,-0.3012705976299112,9.73825152932778,0.22202055724469474,0.536532963187388,0.21168752672337787
4.4,-0.05778457670276535,0.2578983427397913,9.600716876830797,0.21465405923085273,0.46584494064641535,0.008129232575776258
4.405,-0.08894623698471647,0.0037493123728692744,9.743915029710115,0.15854011917603306,-0.14783139435146148,-0.42855452699602253
4.41,-0.3316065917577186,0.018342636691061148,9.425653786731143,0.5013534383531048,0.3670323634054524,-0.6268414544023698
4.415,0.17542728454029988,0.017639791922202497,9.892683896228604,-0.9590852913419118,0.17637551762663145,-0.4991126870070172
4.42,0.006646685045806897,0.3032953399780061,9.990556567197237,-0.9146051662316459,-0.1093572546900006,0.07963041823214972
4.425,-0.10150291875680822,0.17474458257147113,9.903110217330852,0.43774898635828746,-0.05131754774654243,-0.3209506509818951
4.43,-0.2409209976555974,0.04670792990121489,9.994828862263198,0.10443478139603085,-0.007647065825970204,0.04062191106888981
4.4350000000000005,0.14748715564451878,-0.2967780761374912,9.546351590240885,0.10592128327740577,-0.35745708140939875,0.007512842301236822
4.44,0.18016551605906034,-0.08706876244111739,10.003390653685186,-0.23700816953316572,0.26857613066204405,0.08299672990095948
4.445,-0.1517781918893615,0.0014409321624585265,9.853939120231232,-0.053572663425657,-0.030586076006981086,1.167277871702086
4.45,0.06865201742623132,-0.09925665322408589,9.98294355623706,0.5768066637523566,-0.4350234356123722,-0.6566279157290567
4.455,-0.1881961854177381,-0.01031939790829058,9.777630867578598,0.40147043209346184,-0.35175003120356074,0.09661156779411775
4.46,0.1330184674838685,-0.20947775285985704,9.717263484423448,0.3331888222686599,-0.29130123113893086,-0.12880587241165786
4.465,0.08649947568206885,-0.004332206853102614,9.587033226448844,-0.3233445707942583,0.6335250064182268,-0.8517634042707857
4.47,-0.2534195130275531,-0.18884297514526233,9.75175038318443,0.2598277964830395,-0.0405365176566059,-1.0331190086542634
4.4750000000000005,-0.13275537658526237,0.05174040589183504,9.777317049171437,0.05662945487481039,0.6029843577297952,0.024565940541004187
4.48,0.16127133523799464,0.3080412650443789,9.968512976210423,0.39857190311513374,-0.07830538430646869,-0.6778461244216498
4.485,0.3602779827728294,0.015907417925142126,9.863659224626124,0.024315821303441773,0.08694251311639038,-0.9291410225088795
4.49,-0.2078665522004217,0.17160300630927017,9.375055862322293,0.022153169889394208,-0.5379696806355561,-0.4768083815887127
4.495,-0.2509024472447307,-0.3354755815454282,9.651769934254151,-0.6369759878128171,0.0432160951770231,0.7850989021387137
4.5,0.12464194697384082,-0.27356516568763534,9.53573455778454,-0.15723241599625518,0.5620832226429001,-0.7235135768586041
4.505,-0.14209868347186896,0.07185954037733398,10.088973418891207,-0.18309851328384258,0.3508178661566976,0.011867385203129216
4.51,0.043241408332152675,0.2701498436778713,9.945425423703835,-0.9648926631983613,-0.7414524602382262,-0.30598884963823114
4.515,0.1804469093311295,-0.06959669855266958,9.464455792378319,-0.7765725482174703,0.33769071801215084,-0.4508738005268105
4.5200000000000005,-0.019818288050479683,0.025480416763369887,9.750568322078422,-0.28905594111884964,0.5340850683297385,-0.3453514249410292
4.525,0.18319185657636927,0.14296318349942158,9.84123394284173,-0.3090287854657415,0.0804618884133925,-0.41250324050887166
4.53,-0.16144391022195004,0.034408130725996085,9.730190712820969,0.021263755431130123,-0.20804558337217946,0.045876898039620154
4.535,-0.05846918363741467,0.010484376574727174,9.646182097635016,-0.17724307880591714,-0.01990698310906649,0.969207703479192
4.54,0.08946525520705019,-0.2248629522850284,9.81340886258818,-0.19360659221721196,0.4377988285876512,-0.07577484989451135
4.545,-0.08490312938433035,0.3362891666026804,9.845365690783856,-0.49755305018735685,-0.1937313504070278,0.45129914638332264
4.55,0.21077726344226577,-0.07079141439822625,9.788404199729317,0.9400571325528838,0.12034465740806372,0.7389381902310719
4.555,0.2637543729371438,-0.05000567433083907,9.794059981242324,0.27481425378108315,-0.020862574650392658,0.4840660807412155
4.5600000000000005,-0.041063200102995634,0.07841717763093566,9.496411321951957,0.502764657289445,-0.6165053097474256,-0.5884053554579478
4.565,0.25134309593325876,0.04129701348561418,9.902281124627605,0.35554630737106724,0.6241606654939682,-0.6648106690460521
4.57,-0.04309427299269033,-0.04315944254724442,9.87443919657608,0.7413820394298986,-0.13455534893780186,0.2188802568528212
4.575,-0.32840936463931253,-0.08897844754080991,9.813584533131904,0.04255259185553778,0.22540709021651087,0.4503614194456022
4.58,-0.08349012062485922,0.14190823092721988,9.745409702817161,-0.25932673118544297,-0.013823441752639222,0.5373942064829695
4.585,-0.004675106904244002,-0.06307321499809902,9.552457903360612,1.6168440046362769,-0.9041398975719718,-0.04112313403188492
4.59,-0.14029406641114606,0.22940250765308884,9.8542093178723,-0.02377178842631099,-0.22728218007349626,-0.11035605092122425
4.595,-0.048996168391396394,0.10437583911505202,9.675069135167162,-0.5656720029028408,0.6035659303580816,-0.01372831883229969
4.6000000000000005,-0.0809619276735062,-0.3236662163938239,10.015854715511555,-0.019270910746735925,-1.2425441536610622,0.019948756622972273
4.605,-0.07205285119699827,-0.0408858794374199,9.494319574595895,-0.13917272326033983,-0.11039471479788325,0.32494115321325
4.61,0.12032436300878807,-0.32085684349990856,10.099476747223536,-0.30348166188423603,0.2731147420477397,0.5162409897693706
4.615,0.1089318037129399,0.22668851987103117,9.829593235344626,0.13552122536152114,-0.2680063950169938,0.7164180013309491
4.62,0.11106943616530783,-0.08031099119463447,9.70123688895597,-0.6351377683617072,0.15375491385896922,0.5111076024356989
4.625,-0.1380198267101444,-0.2815239945171462,9.750216075086971,-0.3512101483420804,-0.028099527527904067,0.2339066648207267
4.63,-0.09156851000010344,-0.151062392611351,9.67463525101057,0.022849453264300927,-0.25239749285736973,-0.044585788733813976
4.635,-0.2298704635709633,0.1860689592383603,9.810879508104337,0.4841911640949861,0.983827139723447,0.2827083311958388
4.64,0.37035069802973763,0.06437545576762893,9.523097875558069,0.024977253301849234,-0.42983717927829473,-0.029336255157324513
4.6450000000000005,0.14780774538533778,0.13906850434160992,9.776765531452687,0.07668438622846788,-0.39814850686170705,0.23995076120995937
4.65,-0.36458346642548334,-0.295618690673155,9.866052229824328,-0.5249433252700964,-0.1313831055440339,-0.08884762534888113
4.655,0.24529014160475926,0.26916609669399655,9.97909593103314,0.05034929326681923,0.38485895929255265,1.1359794291737035
4.66,-0.238899676382011,0.13780512482502993,9.642991627854355,-0.3363818672712959,-0.06232809950349918,0.17330177676318057
4.665,-0.006356380082959282,0.20332393985292607,9.744451307789978,0.11556163210780128,0.39922082279527943,0.6782776823263057
4.67,0.15739373337323925,0.48495230343101564,9.7670418791478,-0.27039483279738613,-0.44643809855334227,-0.17170518879088525
4.675,0.09934798223232699,-0.13828949084988734,9.716944994632527,-0.1861294980704911,-0.23322601328970016,-1.3757596132397618
4.68,-0.03186555889005146,-0.14904182751381861,10.089295847561063,0.6879396901993362,-0.17548518259024826,1.044674793527651
4.6850000000000005,-0.07138976308752473,0.09012795735788051,9.51431646930714,1.0129206616124946,-0.03153173566062402,-0.027919894067012428
4.69,0.10987091525434707,0.24548788042060182,9.489978242412867,-0.6088549574850928,-0.34566343880964323,-0.8490268784716929
4.695,0.1196219694736232,-0.08181573561863523,9.985697832822925,0.4897239808914112,0.3438424279112954,-0.11543554998017483
4.7,0.015837539232999676,-0.17653078971276528,9.821713977332427,0.5615664805554734,0.13511910889648415,0.051909634664122004
4.705,-0.0953519050215305,0.12155572073842538,9.533344177106558,0.17736089117994078,0.29785511909560497,-0.2847094241489074
4.71,-0.24045551686586314,-0.1185016187653283,9.474345082648258,-0.4140753542859912,0.3701577316534172,0.5385113437533576
4.715,0.15504715465290858,-0.000764418953535202,9.859095027383495,0.30450454616016714,0.4856947720744495,0.11194021767394047
4.72,-0.14054410075755627,0.27676599194470725,9.684917662402283,-0.5569679181771872,-0.6514609948190861,0.3699063558930222
4.7250000000000005,-0.0491349873486589,0.2751566346152789,10.262499810208503,-0.17154807310538847,-0.6438461582970498,-0.5556676028102663
4.73,-0.17570662381789814,0.11676025221132354,10.21942947621034,0.4401462036480975,0.8032698561033493,-0.16063313666908755
4.735,-0.2870524904017702,-0.2814435130790162,10.121850148972822,0.1854390931880726,0.09977145293587351,0.3327271011703339
4.74,-0.18343575191104777,-0.17281387463584164,10.033689990508794,-0.8266412017594194,-0.07780470609853175,-0.4892424163954965
4.745,0.18341891713126984,0.17325930071843268,9.84506579397295,-0.3396763111159596,-0.24329560308679402,0.7109658023493016
4.75,-0.10269424383674818,-0.30397109941903233,9.570250253533585,0.37436342453418897,-0.6422259571763468,-0.6528775806826156
4.755,-0.10856921711608117,-0.20205118828295365,9.755501828622657,0.24695371408708075,-0.4443488907488862,0.06897454531266903
4.76,0.15020922639176618,-0.1823877720648306,10.018132595362578,-1.066999185044073,-0.04558129121871944,0.5338624169222471
